Time,AccelX,AccelY,AccelZ
1944,1.00,0.04,-0.39
1956,1.00,0.06,-0.37
1969,1.00,0.04,-0.37
1980,1.02,0.06,-0.35
1992,1.02,0.06,-0.39
2003,1.02,0.06,-0.37
2014,1.00,0.06,-0.37
2025,1.00,0.07,-0.35
2037,1.00,0.06,-0.35
2048,1.00,0.06,-0.35
2059,1.02,0.07,-0.37
2070,1.00,0.06,-0.35
2081,1.02,0.04,-0.37
2093,1.00,0.04,-0.37
2107,0.98,0.06,-0.37
2118,1.00,0.04,-0.37
2132,1.00,0.07,-0.37
2143,1.02,0.06,-0.35
2159,1.02,0.06,-0.37
2173,1.00,0.06,-0.35
2184,1.02,0.06,-0.37
2198,1.00,0.06,-0.35
2209,1.00,0.07,-0.37
2224,1.00,0.06,-0.37
2236,1.00,0.06,-0.37
2247,1.00,0.06,-0.35
2258,1.00,0.04,-0.37
2270,1.02,0.07,-0.37
2284,1.00,0.06,-0.35
2295,1.00,0.06,-0.37
2309,1.02,0.06,-0.35
2321,1.00,0.06,-0.37
2335,0.98,0.06,-0.34
2349,1.00,0.07,-0.35
2360,1.02,0.06,-0.37
2372,1.00,0.06,-0.37
2386,1.00,0.06,-0.37
2397,1.00,0.06,-0.37
2412,1.00,0.04,-0.39
2423,1.00,0.04,-0.37
2438,0.98,0.06,-0.34
2449,1.00,0.06,-0.37
2463,1.02,0.06,-0.37
2475,1.00,0.06,-0.37
2489,1.00,0.06,-0.35
2501,0.98,0.06,-0.35
2516,1.00,0.06,-0.37
2530,1.02,0.06,-0.35
2543,1.00,0.06,-0.34
2555,1.02,0.06,-0.37
2567,1.00,0.06,-0.37
2581,1.02,0.07,-0.35
2592,1.00,0.04,-0.37
2607,1.00,0.06,-0.37
2618,1.00,0.07,-0.35
2630,1.00,0.06,-0.37
2641,1.02,0.06,-0.35
2653,1.00,0.06,-0.37
2668,1.02,0.06,-0.37
2682,1.02,0.06,-0.37
2694,1.00,0.06,-0.35
2708,1.00,0.03,-0.35
2720,1.00,0.06,-0.37
2731,1.00,0.06,-0.37
2745,1.02,0.06,-0.35
2759,1.02,0.07,-0.35
2770,1.02,0.06,-0.35
2785,1.00,0.06,-0.35
2796,1.00,0.06,-0.37
2812,1.00,0.04,-0.37
2826,1.00,0.06,-0.39
2837,1.02,0.06,-0.35
2852,1.00,0.07,-0.39
2863,1.00,0.04,-0.35
2877,0.98,0.04,-0.37
2889,1.02,0.07,-0.35
2903,1.02,0.06,-0.35
2915,1.02,0.06,-0.37
2929,1.02,0.07,-0.35
2942,1.02,0.06,-0.37
2954,1.00,0.06,-0.39
2965,0.98,0.04,-0.35
2980,1.00,0.06,-0.35
2991,0.98,0.04,-0.37
3005,1.03,0.07,-0.37
3017,1.00,0.04,-0.37
3032,0.98,0.04,-0.39
3046,1.00,0.06,-0.35
3058,1.00,0.06,-0.39
3072,1.02,0.06,-0.37
3084,0.98,0.06,-0.35
3098,1.00,0.06,-0.35
3110,1.00,0.04,-0.39
3122,1.00,0.04,-0.37
3135,1.00,0.06,-0.39
3147,1.02,0.04,-0.37
3158,1.02,0.04,-0.37
3170,1.00,0.07,-0.35
3181,1.00,0.06,-0.35
3193,1.00,0.04,-0.37
3205,1.02,0.06,-0.37
3224,1.00,0.04,-0.39
3235,1.00,0.04,-0.35
3250,1.00,0.04,-0.37
3261,0.98,0.04,-0.39
3275,1.00,0.06,-0.39
3287,1.00,0.06,-0.37
3299,1.00,0.06,-0.37
3311,1.02,0.04,-0.37
3324,1.00,0.04,-0.37
3336,1.00,0.06,-0.37
3347,1.00,0.04,-0.39
3359,0.98,0.06,-0.37
3370,1.00,0.06,-0.35
3382,1.00,0.06,-0.37
3394,1.00,0.06,-0.37
3408,1.00,0.04,-0.37
3420,1.00,0.04,-0.39
3431,1.00,0.04,-0.37
3443,1.00,0.06,-0.39
3454,1.00,0.06,-0.37
3466,1.00,0.06,-0.39
3477,1.00,0.06,-0.37
3492,1.00,0.06,-0.37
3505,1.00,0.04,-0.39
3516,0.98,0.07,-0.37
3528,1.00,0.06,-0.37
3542,1.00,0.06,-0.39
3554,1.00,0.06,-0.37
3568,1.00,0.07,-0.37
3579,1.00,0.04,-0.39
3594,1.00,0.06,-0.37
3605,1.00,0.06,-0.37
3620,1.00,0.06,-0.39
3631,0.98,0.04,-0.37
3645,1.00,0.07,-0.39
3657,1.02,0.04,-0.37
3671,1.00,0.07,-0.35
3683,1.00,0.06,-0.37
3698,1.00,0.06,-0.37
3714,1.00,0.04,-0.37
3725,1.00,0.06,-0.39
3737,0.98,0.07,-0.37
3748,1.00,0.06,-0.37
3763,1.00,0.06,-0.39
3775,1.00,0.06,-0.37
3787,0.96,0.04,-0.39
3798,1.00,0.06,-0.39
3810,1.00,0.06,-0.37
3821,1.00,0.06,-0.39
3833,1.00,0.06,-0.37
3844,0.98,0.06,-0.35
3859,1.00,0.07,-0.37
3870,1.00,0.04,-0.39
3884,1.00,0.06,-0.35
3898,1.00,0.06,-0.35
3909,1.00,0.06,-0.39
3921,1.00,0.06,-0.35
3935,1.00,0.04,-0.39
3947,1.00,0.06,-0.37
3958,1.02,0.06,-0.37
3970,1.02,0.06,-0.39
3982,1.00,0.06,-0.37
3993,1.00,0.06,-0.39
4005,1.00,0.06,-0.35
4016,1.00,0.06,-0.35
4030,1.02,0.04,-0.37
4042,1.00,0.06,-0.37
4056,1.00,0.06,-0.37
4067,1.00,0.06,-0.35
4083,1.00,0.06,-0.37
4095,0.98,0.04,-0.37
4107,1.00,0.06,-0.37
4118,1.00,0.06,-0.35
4130,1.00,0.06,-0.37
4141,1.00,0.06,-0.37
4152,1.00,0.06,-0.37
4167,1.02,0.07,-0.37
4178,1.00,0.04,-0.37
4192,1.00,0.06,-0.37
4204,1.00,0.06,-0.37
4218,1.00,0.07,-0.37
4229,1.02,0.06,-0.37
4243,1.00,0.06,-0.35
4255,0.98,0.04,-0.37
4271,1.00,0.06,-0.37
4283,1.00,0.06,-0.39
4294,1.02,0.06,-0.39
4306,1.00,0.06,-0.35
4317,1.00,0.06,-0.35
4328,1.02,0.07,-0.35
4340,1.02,0.06,-0.39
4351,1.00,0.06,-0.37
4363,1.00,0.06,-0.35
4374,1.02,0.06,-0.39
4385,1.02,0.06,-0.37
4399,1.00,0.06,-0.37
4411,1.00,0.06,-0.37
4425,1.00,0.06,-0.35
4436,1.02,0.06,-0.35
4450,1.00,0.06,-0.35
4465,1.00,0.06,-0.37
4476,1.00,0.06,-0.39
4487,0.98,0.06,-0.37
4501,1.00,0.06,-0.35
4512,1.02,0.06,-0.35
4526,1.02,0.07,-0.39
4537,1.00,0.07,-0.35
4551,1.00,0.06,-0.37
4564,1.00,0.04,-0.37
4575,1.00,0.04,-0.37
4586,1.00,0.04,-0.37
4598,1.00,0.06,-0.37
4612,1.00,0.06,-0.37
4623,1.00,0.06,-0.37
4638,1.00,0.06,-0.35
4651,1.02,0.06,-0.39
4662,1.00,0.07,-0.37
4673,1.00,0.04,-0.37
4685,1.00,0.06,-0.37
4696,1.00,0.06,-0.35
4708,1.00,0.06,-0.37
4719,1.00,0.06,-0.39
4733,1.02,0.06,-0.35
4744,1.00,0.06,-0.35
4759,1.00,0.06,-0.37
4770,1.00,0.06,-0.37
4784,1.00,0.06,-0.39
4795,1.00,0.06,-0.39
4810,1.00,0.04,-0.35
4822,0.98,0.06,-0.37
4835,1.00,0.06,-0.35
4847,1.00,0.07,-0.37
4859,1.00,0.04,-0.37
4870,1.00,0.06,-0.37
4882,1.00,0.06,-0.37
4893,1.00,0.06,-0.35
4904,1.00,0.06,-0.37
4916,1.00,0.06,-0.37
4930,1.00,0.06,-0.37
4941,1.00,0.06,-0.37
4955,1.00,0.06,-0.37
4967,1.02,0.06,-0.37
4981,1.00,0.06,-0.35
4992,1.00,0.06,-0.35
5006,1.00,0.06,-0.35
5018,1.02,0.06,-0.37
5034,1.02,0.06,-0.37
5045,1.00,0.06,-0.37
5057,1.00,0.06,-0.37
5068,1.00,0.07,-0.35
5079,1.02,0.06,-0.37
5091,1.00,0.06,-0.35
5102,1.00,0.06,-0.35
5113,1.00,0.06,-0.35
5129,1.00,0.06,-0.35
5143,1.00,0.06,-0.37
5154,1.00,0.06,-0.35
5168,1.00,0.06,-0.37
5181,1.02,0.06,-0.37
5192,1.02,0.06,-0.35
5204,1.00,0.07,-0.37
5217,1.02,0.04,-0.35
5228,1.02,0.07,-0.37
5240,0.98,0.06,-0.35
5254,1.00,0.06,-0.37
5266,1.02,0.06,-0.37
5280,1.00,0.06,-0.35
5291,1.00,0.06,-0.37
5306,1.02,0.06,-0.37
5317,1.02,0.04,-0.35
5331,0.98,0.06,-0.35
5343,1.00,0.06,-0.37
5357,1.00,0.06,-0.37
5369,1.00,0.06,-0.37
5383,1.00,0.06,-0.35
5395,1.02,0.06,-0.34
5411,1.00,0.06,-0.37
5422,1.00,0.06,-0.35
5435,1.00,0.04,-0.37
5449,1.00,0.06,-0.37
5460,1.00,0.07,-0.35
5475,1.00,0.07,-0.34
5486,1.00,0.06,-0.37
5501,1.00,0.06,-0.37
5512,1.00,0.06,-0.34
5526,1.00,0.04,-0.35
5538,1.00,0.06,-0.35
5552,1.00,0.06,-0.35
5563,1.00,0.06,-0.35
5578,1.00,0.07,-0.37
5589,1.00,0.04,-0.37
5605,1.02,0.06,-0.37
5617,1.00,0.06,-0.35
5628,1.00,0.04,-0.35
5640,1.00,0.06,-0.37
5654,1.00,0.06,-0.35
5665,1.00,0.06,-0.37
5680,1.00,0.06,-0.37
5691,1.00,0.06,-0.34
5706,1.00,0.06,-0.35
5717,1.00,0.06,-0.39
5732,1.00,0.06,-0.35
5747,1.00,0.06,-0.35
5758,1.00,0.06,-0.35
5772,1.00,0.06,-0.35
5784,1.00,0.06,-0.35
5798,1.00,0.06,-0.35
5812,1.00,0.07,-0.35
5823,1.00,0.06,-0.37
5835,0.98,0.06,-0.35
5849,1.00,0.06,-0.37
5860,1.00,0.07,-0.37
5875,1.00,0.06,-0.35
5886,1.00,0.06,-0.35
5901,1.00,0.07,-0.35
5912,1.02,0.07,-0.35
5926,1.00,0.06,-0.35
5939,1.00,0.06,-0.35
5950,1.02,0.07,-0.35
5962,1.00,0.06,-0.37
5973,1.00,0.04,-0.37
5985,0.98,0.06,-0.35
5998,1.00,0.06,-0.35
6010,1.02,0.07,-0.37
6022,1.00,0.06,-0.37
6034,1.00,0.06,-0.35
6045,1.00,0.06,-0.35
6057,1.02,0.06,-0.37
6068,1.00,0.06,-0.35
6080,1.00,0.06,-0.37
6091,1.02,0.06,-0.35
6103,1.02,0.06,-0.37
6117,1.00,0.06,-0.35
6128,1.00,0.07,-0.37
6143,1.00,0.06,-0.37
6154,1.00,0.06,-0.39
6169,1.02,0.06,-0.37
6182,1.02,0.06,-0.35
6193,1.00,0.06,-0.35
6205,1.00,0.04,-0.35
6219,1.00,0.06,-0.35
6231,1.00,0.04,-0.35
6245,1.02,0.07,-0.35
6256,1.02,0.06,-0.35
6271,1.00,0.06,-0.37
6283,1.00,0.07,-0.35
6295,0.98,0.01,-0.39
6307,1.00,0.10,-0.39
6321,1.02,0.04,-0.35
6333,1.02,0.07,-0.34
6347,1.02,0.07,-0.37
6364,0.98,0.06,-0.35
6379,1.00,0.06,-0.34
6391,1.02,0.06,-0.35
6402,1.02,0.06,-0.35
6414,1.00,0.07,-0.35
6428,1.00,0.06,-0.35
6440,1.00,0.06,-0.35
6451,1.00,0.06,-0.34
6463,1.02,0.07,-0.35
6474,1.00,0.06,-0.35
6489,1.02,0.07,-0.35
6500,1.02,0.07,-0.34
6512,1.00,0.06,-0.34
6523,1.00,0.06,-0.35
6535,1.02,0.07,-0.35
6549,1.02,0.06,-0.34
6561,1.00,0.07,-0.35
6577,1.02,0.06,-0.35
6588,1.00,0.06,-0.34
6600,1.02,0.07,-0.35
6612,1.02,0.06,-0.34
6623,1.02,0.06,-0.34
6635,1.02,0.07,-0.37
6647,1.00,0.06,-0.35
6658,1.02,0.06,-0.37
6670,1.00,0.06,-0.35
6681,1.00,0.06,-0.35
6695,1.00,0.06,-0.37
6707,1.02,0.06,-0.34
6721,1.00,0.06,-0.34
6732,1.02,0.07,-0.35
6746,1.00,0.07,-0.32
6760,1.03,0.06,-0.40
6771,1.00,0.04,-0.37
6782,1.02,0.09,-0.34
6794,1.00,0.06,-0.34
6805,1.00,0.07,-0.35
6817,1.00,0.04,-0.34
6828,1.00,0.07,-0.37
6842,1.02,0.07,-0.35
6853,1.02,0.07,-0.34
6868,1.02,0.06,-0.35
6879,1.00,0.06,-0.35
6894,1.00,0.06,-0.34
6908,1.02,0.07,-0.34
6920,1.00,0.07,-0.37
6934,1.00,0.06,-0.35
6948,1.02,0.07,-0.35
6959,1.02,0.07,-0.34
6971,1.00,0.07,-0.34
6985,1.02,0.06,-0.34
6996,1.02,0.06,-0.34
7012,1.02,0.06,-0.34
7026,1.02,0.06,-0.34
7038,1.00,0.06,-0.35
7049,1.02,0.07,-0.35
7061,1.00,0.06,-0.35
7072,1.02,0.07,-0.35
7087,1.00,0.06,-0.34
7098,1.02,0.06,-0.35
7112,1.00,0.06,-0.35
7124,1.00,0.07,-0.34
7140,1.00,0.06,-0.32
7151,1.02,0.06,-0.35
7163,1.02,0.06,-0.34
7175,1.02,0.07,-0.34
7190,1.02,0.07,-0.35
7204,1.00,0.07,-0.34
7216,1.00,0.06,-0.34
7230,1.00,0.06,-0.34
7241,1.02,0.07,-0.34
7256,1.00,0.06,-0.34
7267,1.00,0.07,-0.34
7279,1.02,0.06,-0.34
7290,1.00,0.06,-0.34
7302,1.02,0.06,-0.34
7316,1.02,0.06,-0.34
7328,1.00,0.07,-0.35
7344,1.02,0.07,-0.32
7355,1.00,0.06,-0.34
7368,1.02,0.07,-0.35
7379,1.00,0.07,-0.34
7391,1.00,0.06,-0.34
7402,1.00,0.06,-0.35
7413,1.02,0.07,-0.32
7427,1.00,0.07,-0.34
7439,1.00,0.06,-0.34
7453,0.96,0.09,-0.32
7464,1.03,0.06,-0.32
7480,1.02,0.04,-0.34
7494,1.02,0.07,-0.31
7505,1.03,0.09,-0.31
7519,1.02,0.06,-0.29
7532,1.02,0.07,-0.29
7544,1.03,0.07,-0.29
7555,1.02,0.09,-0.29
7566,1.03,0.09,-0.25
7578,1.03,0.09,-0.26
7589,1.06,0.09,-0.32
7601,0.98,0.09,-0.26
7615,1.02,0.07,-0.18
7626,1.05,0.07,-0.26
7640,1.02,0.07,-0.25
7652,1.03,0.09,-0.23
7667,1.00,0.07,-0.21
7681,1.02,0.09,-0.21
7692,1.03,0.09,-0.21
7706,1.02,0.09,-0.20
7720,1.03,0.09,-0.23
7731,1.02,0.09,-0.14
7742,1.05,0.09,-0.21
7754,1.03,0.09,-0.17
7765,1.03,0.09,-0.17
7778,1.02,0.12,-0.17
7792,1.03,0.10,-0.17
7803,1.05,0.10,-0.18
7817,1.05,0.10,-0.15
7829,1.03,0.12,-0.14
7843,1.05,0.10,-0.14
7854,1.05,0.12,-0.15
7868,1.05,0.10,-0.15
7880,1.03,0.10,-0.15
7894,1.03,0.10,-0.15
7907,1.03,0.12,-0.15
7918,1.03,0.09,-0.17
7930,1.05,0.09,-0.17
7941,1.06,0.10,-0.17
7952,1.05,0.10,-0.15
7965,1.02,0.12,-0.15
7976,1.03,0.09,-0.15
7988,1.05,0.10,-0.17
7999,1.05,0.10,-0.14
8011,1.05,0.10,-0.14
8022,1.03,0.12,-0.14
8034,1.03,0.10,-0.12
8045,1.03,0.10,-0.15
8061,1.06,0.10,-0.15
8075,1.03,0.10,-0.15
8088,1.03,0.12,-0.15
8100,1.03,0.12,-0.15
8111,1.03,0.10,-0.17
8126,1.05,0.10,-0.15
8137,1.05,0.10,-0.15
8151,1.03,0.10,-0.15
8163,1.02,0.10,-0.17
8177,1.03,0.12,-0.15
8189,1.03,0.12,-0.15
8203,1.06,0.10,-0.15
8215,1.03,0.10,-0.17
8229,1.03,0.12,-0.15
8240,1.03,0.12,-0.17
8255,1.05,0.09,-0.15
8266,1.05,0.10,-0.15
8280,1.03,0.12,-0.14
8294,1.03,0.09,-0.17
8306,1.03,0.10,-0.15
8321,1.03,0.12,-0.18
8332,1.03,0.10,-0.17
8344,1.05,0.10,-0.15
8356,1.03,0.12,-0.15
8368,1.03,0.12,-0.17
8379,1.03,0.12,-0.18
8391,1.03,0.10,-0.15
8402,1.05,0.10,-0.15
8414,1.03,0.12,-0.17
8425,1.05,0.12,-0.15
8437,1.03,0.10,-0.17
8451,1.03,0.12,-0.17
8463,1.03,0.10,-0.17
8479,1.03,0.10,-0.15
8490,1.05,0.12,-0.15
8502,1.03,0.12,-0.18
8514,1.03,0.14,-0.17
8528,1.05,0.10,-0.15
8539,1.05,0.12,-0.17
8554,1.05,0.12,-0.15
8565,1.03,0.10,-0.15
8579,1.05,0.12,-0.18
8591,1.03,0.10,-0.17
8605,1.03,0.12,-0.18
8617,1.03,0.10,-0.17
8631,1.05,0.12,-0.15
8643,1.03,0.12,-0.17
8655,1.03,0.10,-0.14
8669,1.03,0.12,-0.18
8681,1.03,0.10,-0.18
8692,1.03,0.10,-0.17
8706,1.03,0.12,-0.17
8718,1.03,0.12,-0.18
8732,1.03,0.10,-0.18
8743,1.05,0.12,-0.17
8757,1.03,0.10,-0.18
8768,1.03,0.12,-0.17
8783,1.05,0.12,-0.15
8794,1.05,0.09,-0.17
8808,1.02,0.10,-0.17
8819,1.05,0.12,-0.17
8834,1.05,0.10,-0.18
8845,1.05,0.12,-0.18
8861,1.03,0.14,-0.17
8872,1.03,0.12,-0.18
8884,1.03,0.14,-0.18
8895,1.03,0.09,-0.20
8906,1.03,0.10,-0.18
8918,1.05,0.12,-0.18
8929,1.03,0.10,-0.17
8941,1.05,0.10,-0.17
8953,1.03,0.10,-0.17
8964,1.03,0.10,-0.17
8976,1.03,0.12,-0.17
8990,1.03,0.10,-0.18
9001,1.03,0.12,-0.20
9015,1.03,0.10,-0.18
9028,1.03,0.10,-0.20
9039,1.03,0.12,-0.18
9052,1.05,0.09,-0.18
9063,1.03,0.12,-0.18
9075,1.03,0.14,-0.17
9086,1.03,0.12,-0.18
9098,1.05,0.10,-0.17
9109,1.03,0.10,-0.17
9120,1.03,0.10,-0.18
9132,1.02,0.12,-0.20
9146,1.03,0.09,-0.18
9157,1.05,0.12,-0.18
9171,1.05,0.12,-0.20
9183,1.03,0.12,-0.20
9197,1.02,0.12,-0.20
9208,1.03,0.10,-0.23
9223,1.05,0.10,-0.21
9239,1.03,0.10,-0.21
9251,1.03,0.10,-0.21
9262,1.02,0.12,-0.28
9274,1.02,0.12,-0.25
9288,1.03,0.10,-0.17
9300,1.03,0.12,-0.23
9314,1.03,0.10,-0.25
9325,1.03,0.07,-0.23
9340,1.03,0.07,-0.28
9351,0.95,0.10,-0.29
9365,1.13,0.04,-0.18
9378,1.00,0.18,-0.18
9390,1.05,0.10,-0.14
9401,1.02,0.10,-0.25
9413,0.96,0.07,-0.23
9426,1.02,0.12,-0.26
9437,1.00,0.07,-0.25
9449,1.03,0.09,-0.26
9461,1.03,0.09,-0.23
9472,1.05,0.10,-0.23
9487,1.06,0.14,-0.23
9498,1.03,0.10,-0.23
9516,1.05,0.10,-0.23
9527,1.03,0.10,-0.23
9542,1.05,0.09,-0.23
9553,1.03,0.10,-0.28
9565,1.03,0.09,-0.23
9577,1.03,0.10,-0.25
9588,1.03,0.09,-0.25
9600,1.02,0.10,-0.26
9614,1.02,0.10,-0.25
9625,1.03,0.10,-0.26
9637,1.03,0.10,-0.26
9649,1.03,0.10,-0.25
9660,1.03,0.10,-0.23
9672,1.03,0.09,-0.25
9684,1.03,0.10,-0.26
9696,1.03,0.09,-0.26
9707,1.02,0.10,-0.28
9720,1.03,0.10,-0.25
9732,1.02,0.10,-0.25
9743,1.03,0.10,-0.28
9757,1.03,0.10,-0.26
9769,1.02,0.10,-0.25
9783,1.03,0.09,-0.26
9795,1.03,0.09,-0.23
9809,1.02,0.10,-0.26
9823,1.02,0.10,-0.26
9835,1.03,0.09,-0.25
9849,1.02,0.10,-0.28
9861,1.03,0.09,-0.25
9875,1.03,0.10,-0.26
9887,1.03,0.10,-0.23
9901,1.02,0.10,-0.25
9912,1.03,0.09,-0.26
9927,1.03,0.10,-0.25
9938,1.02,0.10,-0.25
9952,1.03,0.12,-0.26
9964,1.02,0.09,-0.25
9978,1.03,0.10,-0.26
9990,1.03,0.10,-0.26
10006,1.03,0.10,-0.26
10017,1.03,0.10,-0.25
10029,1.03,0.10,-0.25
10040,1.03,0.09,-0.26
10054,1.02,0.10,-0.26
10066,1.03,0.09,-0.25
10080,1.03,0.09,-0.26
10093,1.03,0.10,-0.25
10105,1.02,0.10,-0.26
10117,1.03,0.10,-0.25
10131,1.03,0.09,-0.25
10142,1.03,0.09,-0.26
10156,1.02,0.10,-0.26
10168,1.02,0.12,-0.25
10182,1.02,0.10,-0.26
10195,1.03,0.09,-0.25
10206,1.02,0.10,-0.25
10218,1.03,0.09,-0.25
10229,1.03,0.10,-0.25
10240,1.02,0.09,-0.23
10252,1.03,0.09,-0.25
10263,1.03,0.09,-0.23
10277,1.02,0.09,-0.26
10289,1.03,0.10,-0.25
10303,1.03,0.12,-0.25
10314,1.03,0.09,-0.25
10328,1.03,0.10,-0.25
10340,1.02,0.10,-0.25
10354,1.03,0.09,-0.25
10365,1.03,0.09,-0.25
10382,1.02,0.09,-0.25
10393,1.03,0.12,-0.26
10405,1.03,0.09,-0.25
10416,1.03,0.09,-0.26
10428,1.03,0.10,-0.23
10440,1.03,0.10,-0.26
10451,1.03,0.09,-0.26
10463,1.03,0.10,-0.25
10474,1.03,0.10,-0.25
10485,1.03,0.10,-0.25
10500,1.03,0.10,-0.25
10511,1.02,0.12,-0.25
10525,1.03,0.09,-0.26
10536,1.03,0.09,-0.23
10551,1.03,0.09,-0.26
10562,1.03,0.10,-0.28
10578,1.02,0.09,-0.25
10589,1.00,0.09,-0.23
10601,1.02,0.09,-0.26
10612,1.05,0.10,-0.26
10626,1.03,0.12,-0.25
10638,1.02,0.09,-0.25
10653,1.02,0.10,-0.26
10667,1.02,0.09,-0.26
10678,1.03,0.10,-0.26
10693,1.03,0.09,-0.26
10704,1.02,0.09,-0.26
10718,1.02,0.12,-0.25
10729,1.06,0.07,-0.26
10744,1.00,0.29,0.01
10755,1.06,-0.03,-0.12
10771,0.98,0.20,-0.25
10783,0.98,-0.03,-0.25
10795,1.02,0.03,-0.35
10807,1.03,0.04,-0.50
10818,1.02,0.07,-0.45
10830,1.02,0.07,-0.37
10841,0.98,0.07,-0.42
10853,1.02,0.10,-0.43
10864,1.02,0.09,-0.29
10876,0.79,0.31,-0.43
10890,1.02,-0.26,-0.39
10902,1.11,0.14,-0.03
10916,0.95,0.09,-0.07
10928,1.08,0.04,-0.40
10940,1.06,0.10,-0.23
10953,1.03,0.15,-0.17
10964,1.02,0.10,-0.26
10976,1.02,0.09,-0.26
10987,1.05,0.07,-0.21
11001,1.00,0.09,-0.26
11013,1.00,0.09,-0.23
11027,1.03,0.10,-0.26
11038,1.02,0.68,1.14
11052,1.30,0.00,-0.92
11065,0.95,0.50,-0.68
11076,0.95,-0.21,-0.01
11088,0.93,0.17,-0.42
11099,1.00,0.07,-0.57
11113,1.08,0.04,-0.43
11124,0.98,0.15,-0.42
11140,1.02,-0.10,-0.32
11152,1.08,-0.04,-0.23
11163,1.11,0.25,0.20
11175,1.02,0.14,-0.07
11189,1.19,0.09,-0.37
11200,1.03,0.09,-0.20
11214,1.05,0.18,-0.10
11226,1.06,0.10,-0.23
11240,1.03,0.10,-0.21
11251,0.98,0.09,-0.21
11265,1.00,0.07,-0.28
11277,1.63,-0.53,-0.18
11291,1.23,-0.39,-1.67
11302,1.19,0.43,-0.51
11316,0.82,-0.04,0.20
11328,0.92,0.25,-0.42
11344,1.08,0.01,-0.40
11356,0.95,0.15,-0.25
11367,0.93,-0.03,-0.31
11379,1.03,0.20,0.01
11390,1.05,0.12,-0.12
11402,1.05,0.09,-0.29
11413,1.05,0.09,-0.21
11427,1.03,0.14,-0.18
11438,1.03,0.10,-0.25
11453,1.03,0.09,-0.25
11464,1.03,0.09,-0.23
11478,1.05,0.09,-0.23
11491,1.03,0.10,-0.23
11502,1.00,0.09,-0.23
11514,0.96,0.09,-0.25
11527,1.98,-1.70,-1.53
11538,1.41,-0.43,-1.89
11550,1.25,0.39,-1.23
11564,0.82,-0.10,0.35
11576,0.89,0.17,-0.29
11590,1.03,0.09,-0.73
11602,1.02,0.14,-0.53
11616,0.90,-0.23,-0.12
11627,0.98,0.00,-0.09
11642,0.98,0.18,0.00
11654,1.08,0.07,-0.35
11666,1.06,0.03,-0.32
11677,1.06,0.15,-0.10
11689,1.06,0.12,-0.17
11700,1.03,0.09,-0.25
11714,1.02,0.07,-0.21
11725,1.00,0.10,-0.25
11737,0.48,1.41,1.98
11748,0.25,0.01,-0.01
11764,1.31,0.18,-1.31
11778,0.76,0.00,-0.14
11789,0.85,0.12,-0.34
11804,1.09,0.10,-0.67
11815,1.06,0.14,-0.68
11829,0.85,0.29,-0.50
11841,0.98,-0.40,-0.15
11855,1.09,0.12,0.31
11867,0.92,0.20,-0.03
11881,1.03,0.01,-0.48
11893,1.11,0.14,-0.28
11909,1.02,0.12,-0.14
11920,1.05,0.09,-0.25
11932,1.00,0.10,-0.25
11944,0.70,1.03,1.16
11956,1.39,-0.95,-0.43
11967,1.36,-0.14,-1.33
11979,1.14,0.21,-0.73
11990,0.95,-0.01,-0.20
12002,0.89,0.07,-0.43
12014,0.96,0.15,-0.68
12028,1.14,0.10,-0.59
12040,0.79,0.26,-0.68
12052,0.95,0.09,-0.65
12063,0.93,-0.35,-0.09
12075,1.06,0.15,0.50
12088,0.85,0.26,0.07
12100,1.08,-0.04,-0.50
12111,1.13,0.17,-0.46
12123,1.00,0.10,-0.14
12134,1.03,0.15,-0.10
12149,1.03,0.07,-0.29
12160,1.06,0.10,-0.25
12175,1.03,0.09,-0.18
12186,1.00,0.09,-0.26
12200,1.00,0.07,-0.25
12213,1.03,0.10,-0.23
12224,1.02,0.09,-0.23
12236,1.03,0.10,-0.25
12247,1.05,0.10,-0.23
12259,1.03,0.09,-0.23
12272,1.03,0.10,-0.23
12284,1.05,0.09,-0.21
12295,1.02,0.09,-0.23
12308,1.03,0.09,-0.21
12319,1.02,0.10,-0.25
12331,1.03,0.09,-0.21
12342,1.02,0.09,-0.23
12354,1.00,0.10,-0.21
12365,-1.41,1.84,1.98
12377,-0.15,-0.23,0.37
12391,1.47,0.17,-1.25
12403,1.11,0.60,-0.26
12417,1.00,-0.07,-0.25
12428,0.85,0.12,-0.23
12443,1.09,0.14,-0.64
12454,1.03,-0.09,-0.85
12470,1.02,0.07,-0.45
12482,1.02,0.09,-0.60
12493,1.00,0.23,-0.73
12505,0.95,0.10,-0.79
12520,0.93,0.03,-0.51
12534,0.79,-0.01,-0.25
12546,1.03,0.04,0.03
12560,0.98,-0.01,0.12
12571,1.02,0.06,-0.18
12587,1.03,0.14,-0.31
12601,1.02,0.06,-0.26
12612,1.05,0.12,-0.23
12627,1.03,0.15,-0.18
12643,1.06,0.09,-0.23
12657,1.02,0.12,-0.25
12670,1.03,0.09,-0.21
12682,1.03,0.09,-0.23
12693,1.03,0.09,-0.23
12708,1.03,0.09,-0.23
12719,1.03,0.09,-0.23
12731,1.03,0.10,-0.23
12742,1.02,0.09,-0.23
12754,1.03,0.10,-0.21
12768,1.05,0.10,-0.23
12780,1.05,0.09,-0.23
12794,1.03,0.09,-0.23
12805,1.00,0.10,-0.21
12821,1.03,0.09,-0.25
12835,1.03,0.10,-0.21
12847,1.03,0.10,-0.20
12860,1.03,0.09,-0.25
12872,1.06,0.10,-0.23
12884,1.02,0.12,-0.18
12896,1.98,-0.48,0.67
12907,0.62,-0.46,0.00
12918,1.44,0.32,-0.32
12930,0.76,1.06,-1.59
12941,1.20,0.10,-1.28
12955,0.53,-0.35,-0.95
12967,1.58,0.75,-0.37
12981,0.70,0.25,-0.76
12992,1.02,0.03,-0.70
13006,0.90,0.18,-0.64
13018,0.95,0.20,-0.82
13032,0.98,-0.23,-0.75
13045,0.96,0.10,-0.60
13057,0.81,0.28,-0.53
13068,0.87,-0.14,-0.09
13082,0.95,-0.04,0.04
13094,0.82,0.01,-0.37
13109,1.03,0.10,-0.46
13123,0.98,0.10,-0.25
13135,1.00,0.10,-0.21
13149,1.05,0.09,-0.21
13161,1.02,0.12,-0.23
13173,1.05,0.14,-0.23
13184,1.03,0.12,-0.20
13196,1.03,0.14,-0.23
13207,1.03,0.14,-0.23
13218,1.03,0.12,-0.25
13231,1.03,0.10,-0.23
13243,1.03,0.10,-0.23
13254,1.03,0.09,-0.25
13266,1.03,0.10,-0.25
13280,1.02,0.09,-0.23
13291,1.03,0.10,-0.23
13305,1.03,0.12,-0.23
13317,1.02,0.10,-0.25
13331,1.02,0.10,-0.23
13342,1.05,0.10,-0.23
13357,1.03,0.10,-0.23
13368,1.02,0.10,-0.25
13382,1.03,0.10,-0.23
13395,1.03,0.09,-0.21
13406,1.03,0.10,-0.25
13417,1.03,0.12,-0.25
13432,1.02,0.10,-0.21
13443,1.02,0.12,-0.23
13454,1.03,0.10,-0.21
13466,1.05,0.09,-0.23
13477,1.02,0.10,-0.23
13489,1.02,0.12,-0.25
13503,1.03,0.12,-0.18
13514,0.95,0.23,0.17
13528,1.00,-0.21,0.23
13540,1.20,-0.26,-0.60
13554,0.96,0.00,0.28
13565,0.48,0.10,-0.65
13579,0.82,0.07,-0.93
13591,1.03,-0.40,-0.53
13605,1.08,0.31,-0.62
13618,1.08,-0.01,-0.62
13629,0.89,0.14,-0.81
13641,1.02,0.07,-0.70
13655,0.95,0.04,-0.54
13666,0.89,0.09,-0.50
13681,1.09,0.34,-0.07
13692,0.96,-0.23,-0.32
13707,0.96,-0.01,-0.32
13721,1.03,0.15,-0.28
13733,0.92,0.03,-0.21
13747,1.08,0.12,-0.20
13759,1.05,0.07,-0.17
13773,1.02,0.12,-0.23
13784,1.06,0.12,-0.23
13799,1.03,0.14,-0.20
13812,1.06,0.10,-0.20
13823,1.03,0.12,-0.21
13835,1.05,0.09,-0.21
13849,1.03,0.12,-0.21
13861,1.02,0.09,-0.25
13875,1.02,0.09,-0.23
13887,1.02,0.10,-0.23
13901,1.05,0.09,-0.21
13912,1.03,0.10,-0.21
13927,1.03,0.10,-0.21
13938,1.03,0.10,-0.21
13952,1.03,0.10,-0.21
13964,1.03,0.10,-0.23
13978,1.03,0.10,-0.23
13991,1.02,0.10,-0.23
14002,1.03,0.09,-0.23
14015,1.02,0.10,-0.20
14027,1.05,0.09,-0.21
14038,1.03,0.10,-0.23
14050,1.02,0.10,-0.23
14064,1.03,0.10,-0.20
14076,1.03,0.09,-0.21
14090,1.02,0.10,-0.20
14101,0.93,0.06,-0.20
14116,1.98,-0.07,0.17
14127,1.38,-0.46,-0.79
14142,1.19,0.45,-0.23
14153,0.54,0.06,-0.26
14167,0.92,0.14,-0.87
14179,1.34,0.59,-0.85
14193,1.17,0.15,-0.43
14206,0.84,-0.04,-0.73
14218,1.05,0.07,-0.48
14229,1.00,0.14,-0.42
14244,0.98,0.12,-0.59
14255,0.96,0.12,-0.68
14270,0.98,-0.01,-0.54
14282,0.93,0.06,-0.25
14295,0.90,0.03,-0.18
14306,0.93,-0.01,-0.35
14321,0.95,0.10,-0.25
14332,0.93,0.07,-0.21
14346,1.08,0.14,-0.21
14358,1.06,0.09,-0.17
14372,1.03,0.12,-0.21
14384,1.06,0.15,-0.25
14400,1.05,0.12,-0.20
14411,1.05,0.10,-0.18
14423,1.03,0.12,-0.21
14434,1.03,0.10,-0.21
14448,1.05,0.09,-0.23
14460,1.02,0.10,-0.21
14474,1.02,0.09,-0.25
14486,1.02,0.09,-0.23
14500,1.03,0.10,-0.20
14512,1.03,0.09,-0.20
14526,1.05,0.10,-0.23
14537,1.03,0.10,-0.21
14552,1.03,0.10,-0.21
14564,1.05,0.09,-0.20
14576,1.05,0.10,-0.21
14590,1.03,0.10,-0.21
14602,1.03,0.10,-0.20
14613,1.03,0.12,-0.20
14627,1.03,0.10,-0.21
14639,1.03,0.10,-0.21
14653,1.02,0.10,-0.21
14665,1.05,0.10,-0.21
14679,1.03,0.10,-0.20
14691,1.00,0.10,-0.15
14705,0.59,0.31,0.34
14716,1.22,-0.17,-0.18
14731,1.13,0.04,-0.42
14742,0.82,0.10,-0.04
14756,1.00,0.04,-0.37
14768,0.92,0.01,-0.39
14782,0.96,0.14,-0.54
14796,1.17,0.12,-0.59
14807,1.03,0.07,-0.45
14819,0.95,-0.03,-0.40
14833,0.89,0.04,-0.34
14845,0.92,-0.09,-0.50
14857,0.96,-0.01,-0.70
14869,1.00,0.04,-0.51
14880,1.00,0.07,-0.56
14893,1.00,0.04,-0.60
14904,0.96,0.06,-0.62
14918,0.90,0.10,-0.54
14929,0.95,-0.01,-0.62
14944,0.90,0.15,-0.25
14955,0.93,0.01,-0.21
14969,0.98,0.03,-0.28
14982,1.00,0.06,-0.31
14994,1.05,0.09,-0.21
15005,0.89,0.01,-0.29
15019,1.06,0.12,-0.31
15031,1.02,0.10,-0.26
15045,0.98,0.10,-0.23
15056,1.03,0.14,-0.26
15071,1.05,0.07,-0.23
15082,1.05,0.09,-0.18
15096,1.03,0.12,-0.21
15107,1.03,0.10,-0.25
15123,1.03,0.10,-0.23
15137,1.03,0.09,-0.21
15148,1.03,0.09,-0.23
15162,1.02,0.10,-0.25
15176,1.03,0.09,-0.21
15188,1.03,0.09,-0.21
15199,1.03,0.09,-0.23
15211,1.03,0.10,-0.23
15222,1.03,0.09,-0.21
15233,1.05,0.09,-0.20
15248,1.03,0.10,-0.20
15259,1.03,0.10,-0.23
15273,1.03,0.09,-0.23
15285,1.03,0.10,-0.20
15299,1.03,0.09,-0.20
15310,1.05,0.10,-0.21
15324,1.02,0.10,-0.21
15336,1.03,0.10,-0.20
15350,1.05,0.10,-0.20
15363,1.02,0.12,-0.15
15374,1.03,0.12,-0.20
15386,1.03,0.14,-0.17
15398,1.02,0.17,-0.10
15409,0.98,0.12,-0.15
15421,0.98,0.15,-0.15
15432,1.14,-0.12,-0.21
15443,0.93,0.15,-0.20
15454,0.87,0.17,-0.21
15466,1.20,0.12,-0.45
15477,1.23,0.04,-0.39
15492,1.06,0.07,-0.57
15506,0.79,0.34,-0.15
15517,1.08,-0.14,-0.39
15532,0.90,0.10,-0.75
15545,1.06,0.07,-0.56
15556,0.98,0.06,-0.54
15568,1.00,0.04,-0.59
15582,1.00,0.06,-0.59
15593,1.00,0.04,-0.60
15607,0.96,0.03,-0.57
15619,0.95,0.18,-0.40
15633,0.81,0.09,-0.34
15644,1.03,0.28,-0.14
15658,0.93,0.07,-0.15
15670,1.00,0.06,-0.34
15685,1.03,0.10,-0.35
15699,1.00,0.07,-0.26
15710,1.03,0.09,-0.28
15725,0.98,0.09,-0.37
15736,0.96,0.07,-0.35
15752,1.05,0.10,-0.25
15763,1.00,0.15,-0.14
15776,1.00,0.10,-0.03
15787,0.81,0.14,-0.12
15799,1.06,-0.03,-0.32
15815,0.95,0.09,-0.25
15827,1.23,0.26,-0.43
15841,0.98,-0.10,-0.87
15852,0.96,0.18,-0.76
15867,1.09,0.10,-0.39
15878,0.98,0.06,-0.59
15893,0.90,0.07,-0.60
15904,1.08,0.17,-0.43
15916,0.82,0.10,-0.56
15927,1.00,0.09,-0.35
15941,0.90,0.06,-0.23
15952,1.05,0.09,-0.28
15965,1.00,0.06,-0.34
15976,1.03,0.09,-0.25
15988,0.96,0.07,-0.26
16000,1.00,0.07,-0.29
16012,1.05,0.10,-0.32
16024,1.02,0.09,-0.25
16035,1.02,0.18,-0.15
16048,0.98,0.03,-0.23
16059,1.06,0.12,-0.23
16074,1.03,0.12,-0.25
16085,1.06,0.12,-0.01
16099,0.79,0.15,0.14
16111,0.95,0.01,-0.15
16127,0.89,0.17,-0.21
16139,0.93,-0.12,-0.03
16150,1.31,0.17,-0.39
16162,0.73,-0.10,-0.78
16176,0.56,0.00,-0.42
16187,0.78,-0.34,-0.10
16202,0.95,0.40,-0.65
16213,1.09,-0.42,-0.73
16227,0.96,0.14,-0.75
16240,0.96,0.06,-0.48
16252,0.93,0.09,-0.56
16263,1.00,0.17,-0.53
16275,0.87,0.07,-0.56
16286,0.98,-0.01,-0.53
16298,0.96,0.00,-0.31
16311,1.02,0.14,-0.23
16324,1.14,0.18,0.04
16338,0.95,0.09,-0.26
16349,1.00,0.14,-0.35
16364,1.00,0.09,-0.26
16375,1.00,0.06,-0.29
16389,1.00,0.09,-0.29
16401,1.02,0.10,-0.29
16415,1.02,0.10,-0.26
16427,1.02,0.15,-0.21
16441,0.95,0.12,-0.04
16453,0.93,0.10,-0.04
16467,0.96,-0.07,-0.37
16478,0.95,0.10,0.03
16493,1.13,-0.07,-0.71
16504,0.67,0.21,-0.29
16521,1.17,-0.28,-0.90
16533,0.79,-0.09,-0.81
16544,1.06,0.17,-0.65
16559,0.93,0.09,-0.57
16570,1.00,0.10,-0.56
16584,0.98,0.09,-0.51
16596,0.87,0.06,-0.65
16610,0.89,0.00,-0.67
16623,1.00,0.21,-0.40
16634,0.70,-0.17,-0.28
16646,0.96,0.03,0.04
16657,1.02,0.14,-0.17
16669,1.05,0.10,-0.32
16680,0.96,0.06,-0.26
16692,1.02,0.06,-0.28
16708,1.00,0.10,-0.26
16720,1.05,0.09,-0.26
16731,1.02,0.12,-0.26
16743,1.03,0.09,-0.26
16757,1.03,0.09,-0.26
16768,1.02,0.14,-0.23
16783,1.02,0.14,-0.15
16795,0.98,0.06,0.06
16807,0.95,0.03,-0.15
16818,1.00,0.03,-0.18
16830,0.87,0.12,-0.10
16841,1.16,0.12,-0.14
16853,1.08,0.12,-0.54
16865,0.95,0.32,-1.08
16876,0.98,-0.28,-0.67
16889,0.93,-0.06,-1.00
16905,0.96,0.06,-0.76
16919,0.96,0.09,-0.51
16931,0.96,0.01,-0.60
16945,1.02,0.20,-0.54
16956,0.98,0.10,-0.42
16971,0.96,0.03,-0.65
16982,0.95,0.06,-0.45
16996,1.09,0.23,0.01
17008,0.87,0.03,-0.06
17022,1.05,0.07,-0.26
17034,1.03,0.09,-0.25
17045,1.02,0.07,-0.21
17057,1.05,0.12,-0.25
17068,0.98,0.10,-0.25
17086,1.03,0.10,-0.26
17097,1.02,0.09,-0.23
17109,1.03,0.12,-0.26
17123,1.02,0.10,-0.25
17134,0.92,0.21,0.10
17146,1.05,-0.15,0.32
17158,1.09,-0.01,-0.46
17169,1.02,0.17,-0.56
17183,0.84,-0.03,-0.28
17194,0.57,0.31,-0.60
17209,0.93,-0.25,-0.12
17220,1.00,0.17,-0.70
17234,1.13,-0.10,-0.60
17245,0.85,0.01,-0.43
17260,0.96,0.10,-0.54
17273,1.02,0.10,-0.50
17284,0.93,0.06,-0.53
17296,1.00,0.12,-0.56
17307,0.93,0.12,-0.54
17318,0.89,-0.14,-0.56
17330,1.02,0.04,-0.59
17341,0.98,0.18,-0.65
17356,1.03,0.21,-0.20
17370,0.93,0.00,-0.06
17382,1.03,0.01,-0.17
17396,1.02,0.10,-0.18
17407,1.00,0.09,-0.26
17422,1.02,0.10,-0.29
17433,1.03,0.12,-0.29
17447,1.03,0.14,-0.21
17460,1.03,0.10,-0.23
17473,1.03,0.12,0.03
17484,0.95,0.04,-0.09
17495,1.06,-0.06,-0.09
17507,1.00,0.12,-0.03
17518,0.82,0.00,-0.29
17532,1.09,0.45,-0.53
17544,0.98,0.40,-0.71
17558,0.71,-0.15,-0.07
17569,0.95,0.07,-0.64
17584,0.89,-0.01,-0.39
17595,0.92,-0.20,-0.50
17609,1.00,0.17,-0.65
17620,1.00,0.12,-0.76
17636,0.95,0.01,-0.62
17650,1.00,0.07,-0.65
17663,1.02,0.07,-0.75
17674,0.84,0.01,-0.56
17685,0.98,0.04,-0.45
17697,0.82,0.12,-0.48
17711,0.93,0.04,-0.29
17722,0.92,-0.07,0.14
17737,0.93,0.07,-0.03
17751,1.00,0.06,-0.37
17762,1.00,0.12,-0.32
17777,1.02,0.09,-0.25
17788,1.02,0.07,-0.28
17802,0.96,0.10,-0.26
17814,0.96,0.03,-0.15
17828,0.96,0.01,-0.14
17839,1.02,-0.07,0.15
17855,0.82,0.35,-0.15
17867,0.89,-0.06,-0.14
17878,0.92,-0.51,-0.53
17889,0.73,-0.34,-1.06
17904,1.08,0.23,-0.89
17916,0.96,-0.21,-0.57
17927,1.02,0.29,-0.62
17939,1.02,0.06,-0.60
17950,1.13,0.17,-0.48
17964,0.92,0.03,-0.79
17976,0.92,-0.03,-0.70
17990,0.90,0.10,-0.51
18001,1.05,0.25,-0.39
18015,0.79,-0.18,-0.68
18028,0.89,-0.04,-0.03
18046,0.95,0.06,-0.01
18068,1.02,0.12,-0.21
18079,0.96,0.06,-0.50
18091,1.08,0.14,-0.32
18102,1.02,0.09,-0.12
18114,1.02,0.09,-0.26
18125,1.00,0.10,-0.34
18136,1.02,0.06,-0.15
18148,0.89,-0.03,0.01
18159,0.92,0.00,-0.14
18170,1.09,0.40,0.00
18182,0.93,0.35,-0.95
18197,1.30,-0.09,-0.56
18212,0.95,-0.18,-1.05
18223,1.06,0.15,-0.84
18235,1.00,0.00,-0.65
18249,1.00,0.18,-0.60
18260,1.00,0.06,-0.45
18272,1.00,0.10,-0.53
18283,1.00,0.09,-0.53
18295,1.03,0.09,-0.57
18306,0.96,0.03,-0.62
18319,0.95,0.12,-0.54
18331,1.09,0.34,-0.31
18342,0.84,-0.20,-0.57
18354,1.05,-0.10,-0.46
18365,0.93,-0.01,-0.07
18377,0.89,0.12,-0.17
18388,1.00,0.07,-0.31
18402,0.96,0.12,-0.23
18414,0.90,-0.01,-0.37
18430,0.98,0.14,-0.18
18442,1.00,0.06,-0.28
18453,0.89,0.06,-0.18
18466,1.00,0.03,-0.09
18477,0.89,-0.04,0.12
18489,1.03,0.42,0.01
18500,0.85,0.62,0.12
18512,1.23,-0.50,-0.87
18523,0.84,-0.07,-1.38
18535,1.20,0.25,-0.67
18549,0.96,0.31,-0.56
18561,0.92,-0.03,-0.62
18575,1.03,0.06,-0.46
18588,1.00,0.12,-0.50
18599,0.92,0.26,-0.31
18612,0.65,0.39,-0.48
18624,0.78,0.12,-0.45
18635,0.84,0.18,-0.65
18647,1.06,0.07,-0.57
18658,1.05,-0.07,-0.06
18670,0.95,0.03,-0.21
18682,0.87,0.06,-0.20
18696,0.92,0.04,-0.06
18707,0.98,-0.03,-0.26
18722,0.87,-0.06,-0.10
18734,0.98,-0.04,0.06
18746,1.33,0.65,-0.26
18757,1.33,0.09,-0.07
18769,0.81,-0.60,-0.32
18780,0.96,0.29,-0.73
18793,1.08,-0.18,-0.79
18805,0.81,0.25,-0.71
18817,1.03,0.04,-0.48
18828,1.02,0.14,-0.51
18842,1.05,0.10,-0.45
18855,0.82,0.06,-0.68
18866,0.76,0.09,-0.67
18878,1.08,0.18,-0.53
18889,0.93,-0.12,-0.32
18901,0.93,-0.25,-0.53
18912,1.13,0.07,0.14
18924,1.06,0.18,0.03
18936,0.93,0.10,0.07
18955,1.06,0.04,0.18
18967,1.23,0.34,0.04
18978,1.13,-0.42,-0.92
18996,1.14,0.23,-1.14
19010,1.11,-0.07,-0.65
19021,1.13,0.25,-0.45
19033,1.03,0.15,-0.57
19045,1.30,0.04,-0.43
19057,1.06,0.07,-0.43
19069,1.06,-0.01,-0.50
19086,1.11,0.15,-0.46
19098,1.13,0.03,-0.43
19110,0.92,-0.15,-0.20
19129,1.00,0.03,0.21
19142,0.71,0.32,0.12
19154,1.13,0.39,-0.37
19166,1.08,-0.29,-0.90
19177,1.08,0.03,-1.11
19195,1.00,0.18,-0.65
19206,1.08,0.03,-0.53
19218,1.13,0.18,-0.46
19229,1.14,0.12,-0.43
19241,0.68,0.42,-0.51
19253,1.13,0.21,-0.40
19264,1.09,0.29,-0.40
19276,0.85,-0.03,-0.37
19288,0.75,-0.31,0.31
19301,1.09,-0.04,0.75
19312,1.13,0.28,0.04
19324,0.73,-0.12,-0.73
19336,0.90,0.14,-0.70
19353,1.08,0.01,-0.81
19365,1.02,0.25,-0.59
19381,1.05,0.12,-0.64
19398,0.95,0.15,-0.56
19410,1.30,0.39,0.09
19422,0.53,-0.06,-0.79
19434,0.98,0.14,-0.54
19446,0.87,0.04,-0.45
19457,1.08,0.14,-0.09
19469,1.02,0.26,0.07
19480,1.06,0.21,-0.14
19492,0.95,0.01,-0.26
19509,0.98,0.07,-0.34
19520,1.03,0.14,-0.42
19532,1.06,0.12,-0.29
19546,0.89,0.01,-0.37
19558,1.08,0.09,-0.29
19574,1.03,0.10,-0.35
19587,1.02,0.09,-0.31
19605,0.85,-0.04,-0.59
19616,1.00,0.07,-0.18
19628,1.00,0.03,-0.37
19645,1.00,0.09,-0.29
19656,1.03,0.06,-0.35
19668,1.00,0.09,-0.31
19682,1.00,0.09,-0.28
19693,1.00,0.09,-0.37
19710,1.02,0.07,-0.40
19722,1.00,0.07,-0.37
19734,1.00,0.07,-0.34
19746,1.02,0.07,-0.37
19757,1.00,0.07,-0.39
19771,1.02,0.07,-0.39
19785,1.02,0.09,-0.39
19796,1.00,0.07,-0.39
19808,0.96,0.04,-0.46
19820,0.98,0.07,-0.28
19831,1.00,0.04,-0.42
19843,1.02,0.07,-0.37
19854,1.00,0.07,-0.37
19872,1.00,0.09,-0.34
19884,1.00,0.09,-0.39
19895,1.00,0.07,-0.39
19907,1.00,0.09,-0.37
19918,1.00,0.09,-0.37
19929,1.00,0.07,-0.37
19944,1.00,0.07,-0.39
19955,1.00,0.07,-0.40
19974,1.00,0.07,-0.34
19986,1.00,0.07,-0.40
19997,1.02,0.09,-0.37
20009,1.00,0.07,-0.35
20020,1.00,0.09,-0.37
20034,1.00,0.10,-0.39
20045,1.00,0.09,-0.37
20063,0.98,0.09,-0.34
20075,1.00,0.07,-0.39
20087,1.02,0.07,-0.42
20098,1.00,0.07,-0.37
20110,1.02,0.04,-0.34
20121,1.05,0.09,-0.28
20138,1.00,0.06,-0.25
20160,1.13,-0.06,-0.53
20173,1.08,0.14,-0.57
20185,1.00,0.00,-0.59
20197,1.02,0.17,-0.43
20216,1.08,0.04,-0.31
20228,1.00,-0.01,-0.42
20240,0.90,0.09,-0.56
20252,1.00,0.07,-0.42
20267,0.98,0.09,-0.39
20282,0.98,0.07,-0.42
20297,0.96,0.09,-0.43
20309,1.02,0.18,-0.25
20321,1.00,0.07,-0.23
20333,0.96,-0.17,-0.54
20345,0.96,0.21,-0.57
20360,0.96,0.14,-0.35
20374,1.00,0.25,-0.50
20386,0.95,0.12,-0.43
20399,0.95,0.10,-0.45
20412,0.95,0.06,-0.51
20424,1.00,0.07,-0.39
20436,0.93,0.09,-0.40
20449,1.00,0.01,-0.39
20461,1.02,0.01,-0.37
20474,0.98,0.14,-0.50
20486,1.02,-0.39,-0.04
20498,0.89,0.01,-0.60
20516,0.98,0.09,-0.34
20528,1.00,0.07,-0.35
20540,0.96,0.07,-0.37
20555,0.96,0.07,-0.45
20570,1.00,0.06,-0.45
20582,1.00,0.10,-0.43
20594,0.96,0.07,-0.40
20607,0.96,0.06,-0.40
20619,0.98,0.10,-0.42
20631,1.02,0.14,-0.40
20643,0.96,0.14,-0.43
20661,0.98,0.10,-0.48
20673,0.98,0.06,-0.40
20688,1.00,0.07,-0.42
20706,0.98,0.07,-0.46
20719,0.96,0.09,-0.45
20733,0.98,0.09,-0.46
20749,0.95,0.12,-0.42
20765,1.00,0.10,-0.45
20780,0.96,0.12,-0.46
20793,1.02,0.06,-0.46
20805,0.96,0.00,-0.35
20817,0.95,0.10,-0.42
20829,1.00,-0.03,-0.46
20847,1.06,0.14,-0.34
20859,1.05,0.09,-0.37
20871,0.78,0.15,-0.46
20884,0.93,-0.23,-0.57
20896,1.09,0.29,-0.25
20908,1.02,0.18,-0.14
20920,0.92,0.14,-0.43
20932,1.05,0.04,-0.39
20945,0.96,0.00,-0.40
20959,1.09,0.03,-0.37
20980,1.08,0.15,-0.34
20998,0.96,0.14,-0.20
21010,1.00,0.07,-0.25
21025,1.00,0.10,-0.37
21037,0.96,0.10,-0.40
21050,1.00,0.09,-0.23
21069,1.05,0.31,-0.31
21082,0.95,0.20,-0.17
21094,1.02,0.12,-0.25
21106,0.98,0.14,-0.34
21123,1.09,0.10,-0.21
21136,1.02,0.10,-0.18
21148,1.00,0.09,-0.29
21160,1.02,0.10,-0.32
21172,1.02,0.09,-0.31
21189,1.02,0.09,-0.29
21202,0.90,0.04,-0.42
21214,1.00,0.07,-0.34
21226,1.00,0.09,-0.21
21244,1.02,0.07,-0.28
21256,1.05,0.10,-0.34
21271,1.02,0.07,-0.29
21289,0.95,-0.10,-0.48
21301,0.96,0.04,-0.25
21313,1.05,0.04,-0.26
21326,0.54,-0.01,0.32
21338,1.66,0.15,-0.67
21350,0.96,0.17,-0.45
21364,1.41,0.25,-0.03
21377,0.84,0.23,-0.18
21397,0.96,-0.23,-0.87
21412,0.96,-0.26,-1.02
21427,1.05,0.18,-0.73
21442,1.05,0.23,-0.51
21460,1.06,0.09,-0.57
21472,0.96,0.04,-0.53
21487,1.02,0.10,-0.59
21502,0.93,-0.04,-0.51
21514,0.93,-0.09,-0.29
21526,1.09,0.14,0.04
21538,0.96,0.12,0.07
21551,0.96,0.07,-0.20
21563,0.92,0.06,-0.18
21580,0.93,-0.07,-0.12
21592,1.28,0.45,-0.10
21607,0.75,0.20,-0.46
21622,0.81,-0.21,-0.92
21634,0.98,-0.31,-0.70
21647,0.96,0.23,-0.64
21659,1.00,0.10,-0.50
21673,0.90,0.14,-0.45
21691,0.95,-0.01,-0.53
21703,0.98,-0.12,-0.54
21715,0.85,0.35,-0.31
21727,0.89,0.06,-0.17
21740,1.05,0.00,-0.14
21752,0.98,0.03,-0.09
21764,1.14,0.18,-0.23
21782,0.98,0.10,-0.23
21794,0.34,-0.14,0.48
21812,0.89,0.29,0.54
21827,0.82,0.12,-0.14
21839,0.76,-0.37,-0.51
21851,0.98,-0.15,-1.09
21863,0.87,0.26,-0.70
21876,1.06,0.09,-0.54
21888,0.95,0.09,-0.54
21900,0.96,0.12,-0.53
21912,0.98,0.12,-0.53
21925,1.02,0.14,-0.57
21942,1.05,0.17,-0.40
21954,0.85,0.18,-0.42
21969,0.87,0.31,0.03
21981,1.03,-0.03,0.10
21993,1.00,0.00,-0.15
22007,0.98,0.06,-0.39
22022,1.03,0.14,-0.35
22034,0.89,0.09,0.06
22047,1.38,-0.20,0.10
22059,0.64,0.50,0.51
22071,1.34,0.32,-0.51
22083,0.95,-0.79,-0.56
22095,0.90,-0.12,-1.25
22110,1.13,0.32,-0.70
22122,0.93,0.03,-0.39
22134,0.96,0.29,-0.39
22146,1.08,0.15,-0.68
22158,0.93,0.14,-0.54
22170,0.85,0.09,-0.70
22188,1.22,-0.09,-0.35
22200,0.87,-0.09,-0.42
22217,0.96,0.29,0.09
22230,1.03,0.00,0.01
22242,1.00,-0.01,-0.23
22259,0.96,0.10,-0.34
22277,1.39,0.07,0.01
22289,1.30,0.46,0.07
22301,1.02,0.45,-0.21
22314,1.08,-0.03,-1.38
22326,0.76,0.48,-0.89
22339,1.03,0.32,-0.60
22352,1.00,0.12,-0.50
22364,0.96,0.10,-0.53
22377,0.95,0.15,-0.65
22390,0.84,0.12,-0.65
22405,1.06,0.20,-0.23
22420,1.13,0.15,-0.28
22433,0.70,0.07,-0.28
22446,0.96,0.12,-0.10
22458,1.06,0.20,0.42
22471,0.78,0.03,0.12
22486,1.02,0.25,0.18
22504,1.02,0.23,0.09
22517,0.98,-0.25,-1.14
22529,0.81,1.36,0.37
22542,0.98,0.34,-0.65
22561,1.02,0.20,-0.56
22575,1.06,0.15,-0.54
22587,0.98,0.14,-0.62
22605,0.98,0.14,-0.59
22618,1.14,0.17,-0.28
22639,0.79,-0.07,-0.21
22652,0.85,-0.04,-0.12
22665,0.93,-0.04,-0.04
22677,1.00,0.04,-0.35
22690,1.02,0.12,-0.48
22702,0.98,0.07,-0.39
22715,1.23,0.09,-0.04
22728,0.98,0.15,-0.20
22740,1.02,0.14,-0.20
22753,1.03,0.09,-0.29
22765,1.03,0.12,-0.32
22778,1.02,0.09,-0.28
22790,1.05,-0.01,-0.31
22803,1.02,0.14,-0.23
22816,1.05,0.07,-0.25
22834,1.03,0.10,-0.29
22852,1.03,0.09,-0.29
22864,1.16,0.18,-0.20
22879,1.08,0.09,-0.15
22898,0.92,0.12,-0.07
22910,1.19,0.15,-0.42
22923,0.90,0.00,-0.34
22936,0.98,-0.03,-0.29
22948,1.20,0.21,-0.25
22961,1.08,-0.04,-0.45
22974,0.92,0.10,-0.14
22987,0.53,0.17,0.14
22999,0.75,0.21,-0.01
23012,0.65,-0.14,-0.57
23025,1.22,-0.26,-0.82
23048,0.71,0.26,0.21
23061,1.03,-0.06,0.21
23074,1.41,0.26,-0.04
23087,1.03,0.43,0.01
23099,1.03,-0.17,0.01
23112,1.02,0.20,-0.14
23125,1.09,0.09,-0.20
23141,0.98,0.14,-0.06
23161,1.09,0.18,-0.01
23176,1.05,0.17,0.03
23195,1.00,0.12,-0.03
23208,1.00,0.12,-0.04
23221,1.09,-0.01,-0.04
23233,0.98,0.10,-0.06
23246,1.08,0.17,-0.01
23261,1.06,0.18,-0.04
23277,1.02,0.18,-0.07
23295,0.98,0.07,-0.18
23308,1.03,0.07,-0.07
23326,1.05,0.14,0.03
23338,1.09,0.21,0.07
23357,1.00,0.21,0.00
23369,1.06,0.15,-0.07
23382,1.03,0.09,-0.04
23395,1.05,0.10,0.01
23407,1.05,0.15,0.01
23420,1.03,0.15,-0.01
23433,1.03,0.14,-0.03
23445,1.02,0.15,-0.06
23458,1.05,0.14,-0.03
23471,1.05,0.14,0.00
23489,1.05,0.14,-0.01
23507,1.03,0.14,-0.01
23522,1.05,0.15,-0.04
23535,1.03,0.15,-0.03
23548,1.03,0.14,-0.01
23560,1.03,0.14,-0.01
23573,1.05,0.15,-0.01
23586,1.03,0.14,0.00
23598,1.03,0.15,-0.01
23611,1.03,0.15,-0.01
23624,1.05,0.17,-0.01
23637,1.03,0.15,-0.01
23649,1.03,0.15,-0.03
23667,1.03,0.15,-0.01
23680,1.03,0.17,-0.01
23702,1.05,0.15,-0.01
23715,1.05,0.14,0.00
23733,1.03,0.15,-0.03
23746,1.03,0.15,-0.01
23759,1.03,0.15,-0.01
23771,1.03,0.15,-0.03
23784,1.05,0.15,-0.01
23797,1.05,0.14,-0.01
23810,1.03,0.14,-0.01
23824,1.03,0.15,-0.03
23836,1.05,0.15,-0.01
23849,1.03,0.15,-0.01
23863,1.03,0.15,-0.01
23875,1.03,0.15,-0.03
23888,1.03,0.15,-0.01
23906,1.05,0.15,-0.03
23925,1.03,0.15,0.00
23938,1.03,0.15,-0.03
23951,1.03,0.17,-0.03
23963,1.03,0.17,-0.03
23976,1.03,0.15,-0.03
23989,1.03,0.15,-0.01
24001,1.03,0.15,-0.01
24017,1.03,0.17,-0.01
24036,1.03,0.15,-0.03
24048,1.05,0.14,-0.01
24061,1.05,0.15,-0.03
24074,1.03,0.15,-0.01
24086,1.03,0.15,-0.03
24099,1.03,0.15,-0.01
24114,1.03,0.15,-0.01
24131,1.03,0.15,-0.01
24144,1.05,0.15,-0.03
24157,1.05,0.15,-0.03
24169,1.03,0.15,-0.01
24182,1.03,0.15,-0.01
24195,1.05,0.17,-0.01
24209,1.05,0.15,-0.03
24221,1.03,0.15,-0.03
24234,1.03,0.15,-0.03
24247,1.03,0.15,-0.03
24259,1.03,0.15,-0.01
24272,1.03,0.15,-0.03
24285,1.03,0.15,-0.04
24298,1.03,0.15,-0.03
24316,1.03,0.15,-0.01
24331,1.03,0.15,-0.01
24344,1.03,0.15,-0.03
24357,1.03,0.15,-0.01
24370,1.03,0.17,-0.03
24382,1.03,0.15,-0.01
24395,1.03,0.15,-0.01
24408,1.03,0.17,-0.01
24420,1.03,0.15,-0.01
24434,1.03,0.17,-0.01
24447,1.03,0.17,-0.03
24460,1.03,0.17,-0.01
24473,1.03,0.17,-0.03
24485,1.03,0.17,-0.03
24498,1.03,0.15,-0.03
24511,1.03,0.15,-0.03
24529,1.03,0.15,-0.03
24548,1.03,0.17,-0.03
24561,1.05,0.15,-0.03
24573,1.03,0.15,-0.03
24586,1.03,0.17,-0.03
24598,1.03,0.14,-0.03
24611,1.03,0.15,-0.03
24623,1.03,0.15,-0.03
24636,1.03,0.15,0.00
24649,1.05,0.15,-0.01
24661,1.05,0.15,-0.01
24674,1.03,0.15,-0.03
24686,1.03,0.17,-0.04
24699,1.03,0.17,-0.03
24714,1.03,0.15,-0.04
24739,1.03,0.15,-0.03
24752,1.05,0.14,-0.03
24764,1.03,0.15,-0.01
24777,1.03,0.15,-0.03
24789,1.03,0.15,-0.03
24801,1.03,0.15,-0.04
24814,1.03,0.15,-0.03
24826,1.03,0.17,-0.03
24839,1.03,0.15,-0.03
24851,1.03,0.15,-0.04
24864,1.05,0.15,-0.03
24877,1.03,0.15,-0.03
24890,1.03,0.15,-0.03
24905,1.03,0.15,-0.03
24923,1.03,0.17,-0.01
24940,1.03,0.15,-0.03
24953,1.03,0.15,-0.04
24966,1.03,0.17,-0.03
24978,1.03,0.17,-0.03
24991,1.05,0.15,-0.04
25009,1.03,0.15,-0.03
25021,1.02,0.17,-0.03
25040,1.05,0.15,-0.04
25053,1.03,0.17,-0.01
25065,1.03,0.17,-0.03
25078,1.05,0.17,-0.03
25090,1.05,0.15,-0.01
25103,1.03,0.15,-0.03
25115,1.03,0.15,-0.03
25127,1.05,0.15,-0.04
25140,1.03,0.17,-0.06
25158,1.03,0.17,-0.04
25170,1.03,0.17,-0.03
25183,1.03,0.17,-0.03
25195,1.05,0.15,-0.03
25208,1.03,0.15,-0.03
25220,1.02,0.15,-0.03
25233,1.05,0.15,-0.03
25246,1.05,0.17,-0.03
25259,1.02,0.15,-0.04
25271,1.03,0.17,-0.04
25284,1.03,0.17,-0.03
25297,1.03,0.15,-0.01
25309,1.05,0.15,-0.04
25322,1.03,0.15,-0.03
25335,1.03,0.17,-0.03
25354,1.03,0.17,-0.03
25366,1.03,0.17,-0.03
25379,1.03,0.15,-0.04
25392,1.05,0.14,-0.04
25404,1.03,0.15,-0.01
25417,1.03,0.17,-0.03
25433,1.02,0.15,-0.04
25451,1.03,0.15,-0.01
25463,1.03,0.15,-0.03
25476,1.03,0.17,-0.03
25489,1.03,0.15,-0.03
25501,1.03,0.15,-0.03
25514,1.05,0.15,-0.03
25527,1.05,0.15,-0.06
25540,1.03,0.15,-0.03
25556,1.03,0.15,-0.03
25571,1.03,0.15,-0.04
25583,1.05,0.15,-0.03
25603,1.05,0.15,-0.04
25615,1.03,0.15,-0.01
25628,1.03,0.17,-0.03
25642,1.05,0.15,-0.04
25655,1.03,0.17,-0.03
25667,1.03,0.15,-0.04
25680,1.03,0.15,-0.04
25693,1.05,0.15,-0.03
25706,1.05,0.17,-0.04
25724,1.03,0.15,-0.03
25742,1.03,0.15,-0.03
25755,1.05,0.14,-0.04
25772,1.03,0.17,-0.04
25786,1.05,0.15,-0.03
25799,1.03,0.15,-0.04
25818,1.03,0.14,-0.03
25830,1.03,0.17,-0.01
25843,1.03,0.15,-0.04
25856,1.05,0.14,-0.04
25869,1.05,0.15,-0.01
25885,1.03,0.17,-0.03
25903,1.05,0.15,-0.04
25915,1.03,0.17,-0.03
25928,1.05,0.15,-0.04
25941,1.03,0.15,-0.04
25956,1.05,0.15,-0.03
25968,1.05,0.15,-0.06
25987,1.05,0.15,-0.03
26001,1.05,0.15,-0.06
26013,1.03,0.15,-0.04
26026,1.03,0.15,-0.03
26039,1.03,0.15,-0.04
26051,1.05,0.15,-0.04
26064,1.05,0.15,-0.03
26077,1.03,0.14,-0.03
26089,1.05,0.17,-0.03
26102,1.05,0.15,-0.04
26115,1.03,0.17,-0.03
26127,1.02,0.17,-0.04
26140,1.03,0.15,-0.03
26156,1.03,0.15,-0.03
26174,1.03,0.15,-0.04
26187,1.05,0.15,-0.04
26205,1.03,0.14,-0.04
26218,1.03,0.17,-0.04
26230,1.03,0.17,-0.04
26243,1.03,0.17,-0.03
26257,1.03,0.15,-0.03
26270,1.03,0.15,-0.03
26282,1.03,0.15,-0.04
26295,1.03,0.15,-0.06
26308,1.03,0.15,-0.04
26320,1.05,0.17,-0.03
26333,1.03,0.15,-0.03
26347,1.03,0.15,-0.03
26359,1.05,0.15,-0.03
26372,1.03,0.15,-0.04
26385,1.03,0.15,-0.06
26403,1.03,0.15,-0.04
26416,1.05,0.15,-0.04
26431,1.05,0.15,-0.04
26450,1.03,0.15,-0.03
26462,1.03,0.15,-0.06
26475,1.03,0.15,-0.06
26488,1.03,0.15,-0.04
26500,1.03,0.15,-0.06
26513,1.05,0.15,-0.04
26526,1.03,0.15,-0.04
26538,1.05,0.15,-0.03
26551,1.05,0.15,-0.04
26565,1.03,0.15,-0.06
26578,1.03,0.15,-0.04
26590,1.03,0.17,-0.06
26608,1.03,0.15,-0.06
26621,1.05,0.17,-0.04
26634,1.03,0.15,-0.06
26646,1.03,0.15,-0.03
26659,1.03,0.15,-0.04
26672,1.05,0.15,-0.04
26684,1.03,0.15,-0.04
26697,1.03,0.15,-0.04
26717,1.05,0.15,-0.04
26729,1.03,0.15,-0.04
26742,1.05,0.15,-0.04
26755,1.05,0.17,-0.04
26767,1.03,0.15,-0.06
26786,1.03,0.17,-0.04
26798,1.03,0.15,-0.04
26815,1.03,0.17,-0.03
26830,1.03,0.15,-0.04
26842,1.03,0.15,-0.04
26858,1.03,0.15,-0.06
26877,1.03,0.15,-0.04
26890,1.03,0.15,-0.04
26903,1.03,0.14,-0.03
26916,1.03,0.15,-0.06
26928,1.05,0.17,-0.06
26946,1.03,0.15,-0.04
26959,1.03,0.17,-0.03
26972,1.05,0.15,-0.03
26985,1.05,0.15,-0.06
26997,1.05,0.15,-0.06
27010,1.03,0.17,-0.04
27025,1.05,0.15,-0.06
27041,1.03,0.15,-0.04
27053,1.03,0.15,-0.04
27069,1.03,0.15,-0.04
27088,1.03,0.17,-0.04
27101,1.05,0.15,-0.04
27114,1.03,0.15,-0.03
27130,1.03,0.15,-0.07
27148,1.03,0.14,-0.06
27161,1.03,0.15,-0.06
27173,1.03,0.15,-0.06
27187,1.03,0.15,-0.04
27200,1.03,0.15,-0.04
27212,1.05,0.15,-0.03
27225,1.03,0.15,-0.03
27243,1.03,0.15,-0.04
27259,1.05,0.15,-0.06
27271,1.05,0.15,-0.04
27284,1.03,0.15,-0.04
27296,1.03,0.15,-0.04
27309,1.03,0.15,-0.04
27321,1.03,0.15,-0.06
27334,1.03,0.15,-0.04
27347,1.05,0.15,-0.04
27359,1.03,0.14,-0.04
27372,1.03,0.15,-0.04
27384,1.03,0.17,-0.06
27397,1.03,0.15,-0.06
27409,1.03,0.15,-0.04
27422,1.03,0.15,-0.04
27434,1.03,0.15,-0.06
27454,1.03,0.15,-0.04
27466,1.03,0.15,-0.06
27480,1.03,0.15,-0.04
27492,1.05,0.17,-0.06
27505,1.03,0.17,-0.06
27517,1.03,0.15,-0.04
27530,1.03,0.17,-0.04
27542,1.03,0.15,-0.04
27555,1.03,0.17,-0.04
27567,1.03,0.17,-0.06
27579,1.05,0.15,-0.04
27592,1.05,0.15,-0.04
27604,1.03,0.15,-0.06
27617,1.05,0.15,-0.04
27629,1.03,0.17,-0.06
27646,1.05,0.15,-0.04
27661,1.05,0.14,-0.04
27679,1.03,0.15,-0.06
27691,1.03,0.15,-0.04
27706,1.03,0.15,-0.06
27721,1.05,0.15,-0.04
27737,1.03,0.15,-0.06
27755,1.03,0.17,-0.04
27768,1.03,0.15,-0.06
27780,1.03,0.15,-0.04
27794,1.03,0.17,-0.04
27806,1.03,0.15,-0.04
27820,1.03,0.17,-0.04
27833,1.05,0.17,-0.06
27845,1.03,0.17,-0.06
27860,1.03,0.15,-0.04
27876,1.05,0.17,-0.04
27889,1.03,0.17,-0.04
27901,1.03,0.15,-0.03
27914,1.03,0.17,-0.03
27926,1.03,0.17,-0.04
27939,1.03,0.15,-0.04
27951,1.02,0.15,-0.06
27964,1.03,0.15,-0.06
27977,1.03,0.15,-0.04
27989,1.03,0.15,-0.06
28002,1.03,0.17,-0.04
28014,1.03,0.15,-0.04
28027,1.03,0.15,-0.06
28039,1.05,0.14,-0.06
28052,1.03,0.15,-0.06
28070,1.03,0.17,-0.06
28084,1.03,0.17,-0.04
28097,1.03,0.15,-0.06
28109,1.03,0.15,-0.06
28122,1.05,0.15,-0.06
28134,1.05,0.17,-0.04
28147,1.03,0.17,-0.04
28159,1.03,0.17,-0.04
28173,1.03,0.15,-0.07
28191,1.05,0.15,-0.06
28204,1.03,0.15,-0.06
28217,1.03,0.15,-0.04
28229,1.03,0.15,-0.06
28242,1.03,0.17,-0.06
28255,1.03,0.15,-0.06
28273,1.05,0.15,-0.04
28286,1.05,0.15,-0.07
28298,1.03,0.15,-0.04
28317,1.05,0.15,-0.06
28329,1.03,0.17,-0.04
28342,1.03,0.17,-0.07
28355,1.03,0.15,-0.04
28367,1.03,0.15,-0.04
28381,1.03,0.15,-0.06
28394,1.03,0.15,-0.04
28412,1.03,0.15,-0.06
28425,1.03,0.14,-0.04
28438,1.03,0.17,-0.06
28450,1.05,0.15,-0.06
28463,1.03,0.17,-0.04
28480,1.03,0.14,-0.04
28494,1.03,0.15,-0.06
28510,1.03,0.15,-0.06
28528,1.03,0.17,-0.04
28541,1.03,0.15,-0.06
28555,1.03,0.14,-0.06
28571,1.03,0.15,-0.06
28589,1.03,0.15,-0.04
28601,1.03,0.15,-0.04
28614,1.03,0.15,-0.06
28627,1.03,0.17,-0.06
28639,1.03,0.15,-0.06
28652,1.03,0.15,-0.04
28665,1.03,0.15,-0.04
28677,1.03,0.17,-0.06
28696,1.03,0.17,-0.04
28712,1.05,0.17,-0.06
28725,1.03,0.15,-0.06
28738,1.03,0.17,-0.04
28750,1.03,0.15,-0.06
28763,1.05,0.15,-0.04
28776,1.03,0.17,-0.06
28792,1.05,0.15,-0.04
28810,1.03,0.17,-0.06
28823,1.03,0.15,-0.06
28835,1.03,0.17,-0.04
28848,1.03,0.15,-0.04
28861,1.03,0.15,-0.06
28873,1.03,0.15,-0.04
28886,1.03,0.15,-0.06
28899,1.03,0.17,-0.06
28917,1.03,0.17,-0.04
28936,1.03,0.15,-0.06
28949,1.03,0.17,-0.06
28962,1.03,0.17,-0.06
28974,1.03,0.14,-0.07
28987,1.03,0.15,-0.06
29005,1.03,0.15,-0.07
29020,1.05,0.15,-0.06
29033,1.03,0.17,-0.07
29053,1.03,0.15,-0.06
29068,1.05,0.15,-0.06
29086,1.03,0.15,-0.06
29099,1.05,0.15,-0.07
29112,1.03,0.15,-0.06
29125,1.05,0.15,-0.04
29143,1.03,0.17,-0.04
29156,1.03,0.15,-0.04
29168,1.05,0.17,-0.06
29187,1.03,0.17,-0.06
29204,1.03,0.15,-0.06
29217,1.03,0.15,-0.06
29230,1.05,0.15,-0.06
29242,1.03,0.14,-0.06
29255,1.03,0.15,-0.06
29268,1.03,0.15,-0.06
29281,1.03,0.15,-0.04
29294,1.03,0.15,-0.04
29313,1.03,0.15,-0.06
29326,1.05,0.15,-0.06
29340,1.03,0.14,-0.06
29358,1.03,0.15,-0.07
29371,1.03,0.15,-0.04
29384,1.05,0.15,-0.06
29403,1.03,0.15,-0.06
29415,1.03,0.15,-0.06
29428,1.03,0.15,-0.06
29441,1.03,0.15,-0.06
29454,1.05,0.15,-0.06
29467,1.03,0.14,-0.04
29479,1.03,0.15,-0.04
29495,1.05,0.15,-0.06
29513,1.03,0.14,-0.04
29526,1.03,0.15,-0.06
29539,1.03,0.15,-0.06
29551,1.03,0.15,-0.07
29569,1.03,0.15,-0.06
29583,1.05,0.15,-0.06
29595,1.05,0.15,-0.04
29610,1.03,0.15,-0.06
29628,1.03,0.15,-0.06
29641,1.03,0.15,-0.06
29660,1.03,0.15,-0.06
29673,1.05,0.15,-0.06
29685,1.03,0.15,-0.06
29699,1.03,0.17,-0.06
29711,1.05,0.17,-0.06
29729,1.05,0.15,-0.06
29742,1.05,0.15,-0.07
29760,1.03,0.15,-0.06
29773,1.03,0.17,-0.04
29789,1.05,0.17,-0.06
29804,1.05,0.17,-0.06
29816,1.03,0.15,-0.06
29829,1.03,0.17,-0.04
29841,1.03,0.15,-0.06
29854,1.03,0.15,-0.06
29866,1.05,0.15,-0.06
29879,1.05,0.14,-0.07
29892,1.05,0.17,-0.06
29904,1.05,0.15,-0.07
29917,1.03,0.15,-0.07
29929,1.03,0.17,-0.06
29942,1.03,0.15,-0.07
29956,1.03,0.15,-0.06
29968,1.03,0.15,-0.06
29981,1.03,0.15,-0.07
29999,1.03,0.15,-0.07
30012,1.03,0.14,-0.04
30024,1.03,0.17,-0.06
30037,1.03,0.15,-0.07
30049,1.03,0.15,-0.06
30063,1.03,0.15,-0.04
30081,1.03,0.17,-0.06
30094,1.03,0.15,-0.04
30112,1.03,0.15,-0.06
30124,1.03,0.15,-0.06
30142,1.03,0.15,-0.07
30155,1.03,0.17,-0.04
30173,1.05,0.15,-0.06
30185,1.03,0.15,-0.06
30204,1.03,0.15,-0.09
30222,1.05,0.15,-0.07
30234,1.03,0.17,-0.06
30247,1.03,0.15,-0.06
30260,1.03,0.15,-0.07
30272,1.03,0.15,-0.04
30286,1.03,0.15,-0.06
30304,1.03,0.15,-0.04
30317,1.03,0.17,-0.06
30330,1.05,0.15,-0.06
30343,1.05,0.15,-0.07
30355,1.03,0.15,-0.06
30368,1.03,0.15,-0.07
30381,1.03,0.17,-0.06
30393,1.05,0.15,-0.07
30406,1.03,0.15,-0.06
30426,1.03,0.15,-0.07
30440,1.05,0.15,-0.06
30454,1.03,0.15,-0.06
30466,1.03,0.15,-0.07
30481,1.05,0.15,-0.07
30497,1.03,0.17,-0.07
30515,1.05,0.17,-0.07
30527,1.03,0.15,-0.07
30540,1.05,0.15,-0.07
30553,1.03,0.17,-0.07
30565,1.03,0.17,-0.06
30578,1.05,0.15,-0.07
30592,1.03,0.15,-0.06
30604,1.03,0.17,-0.04
30617,1.03,0.15,-0.06
30637,1.03,0.15,-0.07
30651,1.03,0.15,-0.04
30663,1.03,0.15,-0.06
30676,1.03,0.15,-0.06
30688,1.03,0.17,-0.06
30701,1.03,0.15,-0.07
30713,1.03,0.17,-0.07
30726,1.03,0.15,-0.06
30739,1.05,0.15,-0.06
30751,1.03,0.17,-0.07
30764,1.03,0.15,-0.06
30776,1.05,0.15,-0.06
30789,1.05,0.14,-0.06
30803,1.03,0.15,-0.06
30821,1.03,0.15,-0.06
30833,1.05,0.15,-0.06
30851,1.03,0.17,-0.06
30864,1.05,0.15,-0.06
30877,1.03,0.15,-0.06
30891,1.05,0.17,-0.07
30903,1.03,0.17,-0.06
30921,1.03,0.15,-0.07
30933,1.05,0.15,-0.06
30951,1.03,0.15,-0.06
30964,1.03,0.17,-0.04
30982,1.03,0.17,-0.07
30995,1.03,0.17,-0.04
31007,1.05,0.15,-0.06
31020,1.03,0.17,-0.06
31032,1.03,0.15,-0.06
31045,1.05,0.15,-0.07
31063,1.03,0.17,-0.06
31075,1.03,0.15,-0.07
31088,1.05,0.15,-0.06
31100,1.03,0.17,-0.06
31113,1.03,0.15,-0.07
31126,1.05,0.17,-0.07
31138,1.03,0.15,-0.04
31151,1.03,0.17,-0.06
31163,1.05,0.15,-0.07
31177,1.03,0.15,-0.06
31190,1.03,0.15,-0.06
31207,1.05,0.15,-0.07
31220,1.03,0.15,-0.06
31238,1.03,0.17,-0.06
31251,1.03,0.15,-0.06
31272,1.03,0.15,-0.06
31287,1.05,0.15,-0.07
31300,1.03,0.15,-0.06
31313,1.03,0.15,-0.06
31325,1.03,0.14,-0.04
31338,1.03,0.17,-0.06
31351,1.03,0.15,-0.04
31363,1.03,0.15,-0.06
31376,1.05,0.17,-0.07
31394,1.05,0.15,-0.06
31407,1.03,0.15,-0.06
31419,1.03,0.15,-0.06
31432,1.03,0.15,-0.04
31445,1.03,0.17,-0.04
31457,1.03,0.15,-0.07
31470,1.05,0.15,-0.07
31489,1.05,0.17,-0.04
31501,1.03,0.15,-0.07
31521,1.03,0.15,-0.06
31534,1.05,0.15,-0.07
31546,1.05,0.17,-0.07
31563,1.05,0.15,-0.04
31576,1.03,0.15,-0.04
31589,1.05,0.15,-0.04
31601,1.03,0.15,-0.06
31614,1.03,0.17,-0.06
31627,1.03,0.15,-0.07
31645,1.03,0.15,-0.06
31658,1.03,0.15,-0.06
31670,1.03,0.15,-0.06
31683,1.03,0.15,-0.07
31701,1.03,0.17,-0.06
31714,1.03,0.15,-0.07
31727,1.03,0.15,-0.06
31739,1.05,0.15,-0.07
31752,1.03,0.15,-0.06
31770,1.03,0.15,-0.07
31783,1.03,0.15,-0.07
31796,1.03,0.15,-0.04
31808,1.03,0.17,-0.06
31822,1.03,0.15,-0.09
31841,1.03,0.15,-0.06
31853,1.03,0.17,-0.07
31866,1.05,0.15,-0.07
31879,1.03,0.15,-0.07
31891,1.05,0.17,-0.07
31910,1.03,0.15,-0.06
31923,1.03,0.15,-0.07
31942,1.03,0.15,-0.06
31955,1.05,0.17,-0.07
31968,1.05,0.15,-0.07
31983,1.03,0.15,-0.07
32001,1.03,0.15,-0.07
32014,1.03,0.14,-0.06
32032,1.03,0.15,-0.07
32044,1.03,0.17,-0.07
32062,1.05,0.15,-0.06
32075,1.05,0.15,-0.06
32093,1.03,0.15,-0.07
32106,1.05,0.17,-0.06
32118,1.03,0.15,-0.06
32136,1.03,0.15,-0.07
32151,1.03,0.15,-0.07
32163,1.03,0.15,-0.06
32176,1.03,0.15,-0.04
32188,1.05,0.17,-0.06
32201,1.03,0.17,-0.06
32213,1.03,0.15,-0.07
32226,1.05,0.15,-0.06
32239,1.03,0.15,-0.06
32251,1.03,0.15,-0.07
32264,1.05,0.15,-0.07
32276,1.03,0.15,-0.06
32289,1.03,0.17,-0.07
32301,1.05,0.17,-0.06
32315,1.05,0.15,-0.06
32332,1.03,0.15,-0.07
32346,1.05,0.15,-0.06
32364,1.03,0.15,-0.06
32376,1.05,0.14,-0.07
32394,1.03,0.17,-0.06
32407,1.05,0.17,-0.06
32425,1.03,0.17,-0.06
32437,1.03,0.17,-0.06
32455,1.03,0.15,-0.06
32469,1.03,0.15,-0.07
32481,1.03,0.15,-0.06
32494,1.03,0.15,-0.04
32506,1.03,0.15,-0.06
32519,1.03,0.15,-0.06
32532,1.05,0.15,-0.06
32544,1.05,0.15,-0.07
32562,1.03,0.15,-0.07
32581,1.05,0.15,-0.06
32593,1.03,0.17,-0.06
32606,1.03,0.15,-0.06
32618,1.05,0.15,-0.06
32631,1.03,0.15,-0.06
32644,1.03,0.17,-0.07
32656,1.05,0.15,-0.04
32669,1.05,0.17,-0.06
32681,1.03,0.17,-0.06
32695,1.03,0.17,-0.06
32713,1.05,0.15,-0.07
32731,1.03,0.15,-0.07
32744,1.05,0.15,-0.06
32756,1.05,0.17,-0.07
32776,1.03,0.15,-0.07
32789,1.03,0.17,-0.07
32802,1.03,0.15,-0.07
32815,1.03,0.17,-0.06
32828,1.03,0.15,-0.06
32841,1.03,0.15,-0.06
32853,1.05,0.17,-0.07
32871,1.03,0.15,-0.06
32884,1.05,0.15,-0.06
32897,1.03,0.15,-0.07
32910,1.03,0.17,-0.07
32923,1.05,0.15,-0.07
32936,1.03,0.15,-0.04
32949,1.03,0.15,-0.06
32967,1.03,0.15,-0.06
32984,1.03,0.15,-0.07
33003,1.05,0.15,-0.06
33015,1.03,0.17,-0.06
33028,1.03,0.15,-0.06
33041,1.03,0.15,-0.07
33054,1.03,0.15,-0.06
33067,1.05,0.15,-0.07
33081,1.05,0.15,-0.07
33094,1.03,0.17,-0.06
33110,1.03,0.14,-0.07
33128,1.03,0.15,-0.06
33141,1.03,0.17,-0.07
33153,1.03,0.15,-0.07
33166,1.03,0.15,-0.07
33179,1.03,0.15,-0.06
33196,1.03,0.17,-0.06
33210,1.05,0.17,-0.04
33222,1.03,0.14,-0.07
33235,1.05,0.15,-0.07
33253,1.03,0.15,-0.07
33266,1.03,0.15,-0.06
33278,1.03,0.14,-0.07
33291,1.03,0.15,-0.06
33304,1.03,0.15,-0.06
33317,1.03,0.15,-0.06
33329,1.03,0.15,-0.07
33342,1.03,0.15,-0.07
33355,1.05,0.17,-0.06
33367,1.03,0.15,-0.07
33381,1.05,0.15,-0.07
33397,1.03,0.15,-0.06
33412,1.05,0.14,-0.06
33425,1.03,0.15,-0.07
33439,1.05,0.15,-0.07
33451,1.05,0.15,-0.07
33464,1.03,0.17,-0.06
33477,1.03,0.17,-0.06
33489,1.05,0.17,-0.07
33502,1.03,0.17,-0.06
33514,1.03,0.15,-0.07
33527,1.03,0.15,-0.07
33539,1.03,0.15,-0.06
33552,1.05,0.15,-0.07
33564,1.03,0.15,-0.06
33577,1.05,0.14,-0.07
33589,1.03,0.17,-0.06
33608,1.03,0.17,-0.06
33620,1.03,0.15,-0.06
33633,1.03,0.17,-0.06
33645,1.03,0.15,-0.06
33658,1.02,0.17,-0.07
33670,1.03,0.15,-0.06
33684,1.05,0.15,-0.07
33697,1.03,0.15,-0.06
33709,1.03,0.15,-0.06
33722,1.03,0.17,-0.07
33734,1.03,0.15,-0.07
33747,1.05,0.17,-0.07
33760,1.03,0.17,-0.06
33772,1.03,0.15,-0.06
33786,1.03,0.15,-0.07
33804,1.05,0.15,-0.07
33817,1.03,0.15,-0.07
33835,1.03,0.15,-0.07
33848,1.05,0.15,-0.06
33860,1.03,0.15,-0.07
33873,1.03,0.15,-0.07
33885,1.03,0.15,-0.07
33898,1.03,0.15,-0.07
33910,1.03,0.15,-0.06
33923,1.03,0.15,-0.07
33935,1.03,0.15,-0.07
33948,1.03,0.15,-0.07
33961,1.03,0.15,-0.06
33974,1.03,0.17,-0.07
33987,1.03,0.17,-0.09
34004,1.03,0.15,-0.07
34018,1.03,0.17,-0.06
34031,1.05,0.15,-0.07
34043,1.03,0.15,-0.07
34056,1.03,0.17,-0.07
34068,1.03,0.17,-0.06
34081,1.03,0.15,-0.07
34093,1.03,0.15,-0.06
34106,1.03,0.15,-0.06
34119,1.03,0.15,-0.09
34131,1.03,0.15,-0.07
34145,1.05,0.15,-0.06
34158,1.03,0.17,-0.07
34176,1.03,0.15,-0.07
34188,1.03,0.15,-0.06
34204,1.05,0.15,-0.06
34219,1.03,0.15,-0.09
34232,1.05,0.17,-0.07
34245,1.03,0.15,-0.07
34258,1.03,0.15,-0.09
34272,1.03,0.17,-0.06
34284,1.03,0.15,-0.07
34297,1.05,0.15,-0.06
34310,1.03,0.15,-0.09
34322,1.05,0.17,-0.06
34335,1.03,0.15,-0.06
34348,1.05,0.17,-0.07
34363,1.03,0.15,-0.04
34382,1.03,0.17,-0.07
34394,1.03,0.15,-0.07
34407,1.05,0.17,-0.06
34426,1.03,0.17,-0.09
34438,1.03,0.15,-0.09
34454,1.03,0.15,-0.07
34472,1.03,0.15,-0.07
34484,1.03,0.15,-0.07
34502,1.05,0.15,-0.07
34515,1.03,0.15,-0.06
34534,1.05,0.15,-0.07
34547,1.03,0.15,-0.07
34560,1.03,0.17,-0.06
34572,1.03,0.15,-0.07
34586,1.03,0.17,-0.06
34599,1.03,0.17,-0.06
34611,1.05,0.15,-0.07
34624,1.05,0.15,-0.07
34642,1.03,0.17,-0.06
34654,1.03,0.17,-0.06
34667,1.03,0.15,-0.07
34680,1.03,0.15,-0.06
34692,1.03,0.15,-0.06
34705,1.05,0.15,-0.07
34717,1.03,0.17,-0.07
34730,1.03,0.15,-0.06
34742,1.05,0.15,-0.06
34755,1.03,0.17,-0.06
34768,1.03,0.17,-0.07
34780,1.03,0.15,-0.07
34793,1.03,0.15,-0.09
34805,1.03,0.17,-0.07
34818,1.03,0.15,-0.07
34835,1.05,0.17,-0.06
34849,1.03,0.17,-0.07
34861,1.03,0.17,-0.06
34881,1.03,0.17,-0.07
34895,1.03,0.17,-0.06
34907,1.03,0.17,-0.07
34920,1.03,0.14,-0.07
34932,1.05,0.15,-0.07
34945,1.03,0.17,-0.06
34958,1.03,0.15,-0.07
34970,1.03,0.15,-0.06
34983,1.03,0.17,-0.07
34995,1.03,0.15,-0.07
35008,1.05,0.15,-0.06
35020,1.03,0.17,-0.07
35035,1.03,0.17,-0.06
35051,1.03,0.17,-0.06
35064,1.03,0.17,-0.06
35076,1.05,0.15,-0.07
35089,1.03,0.17,-0.06
35101,1.03,0.17,-0.07
35114,1.03,0.15,-0.07
35126,1.03,0.17,-0.06
35139,1.05,0.17,-0.06
35152,1.05,0.15,-0.07
35164,1.03,0.15,-0.06
35178,1.03,0.17,-0.06
35191,1.03,0.15,-0.07
35203,1.05,0.15,-0.07
35216,1.05,0.17,-0.07
35232,1.03,0.15,-0.06
35248,1.03,0.15,-0.07
35261,1.03,0.15,-0.07
35273,1.05,0.14,-0.06
35286,1.03,0.15,-0.06
35299,1.03,0.15,-0.07
35312,1.03,0.15,-0.09
35324,1.03,0.15,-0.07
35337,1.03,0.15,-0.06
35350,1.05,0.15,-0.06
35362,1.03,0.15,-0.06
35375,1.05,0.15,-0.07
35388,1.03,0.17,-0.07
35406,1.05,0.17,-0.09
35419,1.03,0.17,-0.07
35432,1.03,0.15,-0.07
35450,1.05,0.17,-0.07
35463,1.05,0.17,-0.07
35480,1.03,0.15,-0.07
35493,1.05,0.15,-0.06
35505,1.03,0.17,-0.07
35518,1.03,0.15,-0.06
35533,1.05,0.17,-0.07
35552,1.03,0.15,-0.06
35564,1.03,0.15,-0.07
35577,1.05,0.15,-0.07
35590,1.03,0.17,-0.06
35604,1.03,0.17,-0.07
35619,1.05,0.15,-0.06
35637,1.05,0.15,-0.09
35650,1.05,0.17,-0.07
35668,1.03,0.17,-0.07
35681,1.03,0.17,-0.07
35694,1.03,0.17,-0.07
35707,1.05,0.15,-0.06
35719,1.03,0.17,-0.07
35738,1.05,0.17,-0.07
35750,1.03,0.17,-0.07
35763,1.03,0.15,-0.07
35776,1.03,0.15,-0.07
35790,1.03,0.15,-0.09
35808,1.05,0.15,-0.06
35821,1.03,0.15,-0.07
35833,1.03,0.17,-0.06
35846,1.03,0.15,-0.06
35859,1.03,0.15,-0.06
35876,1.03,0.17,-0.07
35889,1.03,0.17,-0.09
35902,1.03,0.15,-0.07
35915,1.03,0.15,-0.07
35930,1.03,0.15,-0.07
35948,1.03,0.15,-0.07
35961,1.03,0.17,-0.07
35979,1.03,0.14,-0.07
35993,1.05,0.15,-0.06
36006,1.03,0.15,-0.07
36018,1.05,0.15,-0.09
36031,1.03,0.15,-0.07
36049,1.03,0.15,-0.07
36062,1.03,0.17,-0.06
36075,1.03,0.17,-0.07
36090,1.03,0.15,-0.07
36106,1.03,0.15,-0.07
36120,1.03,0.15,-0.07
36133,1.03,0.15,-0.09
36151,1.03,0.14,-0.07
36163,1.03,0.15,-0.06
36176,1.03,0.15,-0.07
36189,1.05,0.17,-0.07
36202,1.03,0.15,-0.06
36220,1.05,0.15,-0.06
36233,1.05,0.17,-0.07
36246,1.03,0.15,-0.07
36259,1.03,0.15,-0.04
36272,1.03,0.17,-0.07
36287,1.03,0.17,-0.07
36305,1.03,0.17,-0.09
36324,1.05,0.15,-0.07
36337,1.03,0.15,-0.09
36349,1.03,0.17,-0.07
36362,1.05,0.17,-0.07
36382,1.03,0.15,-0.06
36395,1.03,0.15,-0.06
36407,1.03,0.15,-0.07
36420,1.03,0.17,-0.07
36433,1.05,0.15,-0.09
36446,1.03,0.15,-0.07
36459,1.03,0.15,-0.07
36471,1.05,0.15,-0.07
36484,1.05,0.15,-0.07
36496,1.03,0.15,-0.07
36509,1.03,0.15,-0.07
36527,1.05,0.14,-0.07
36540,1.03,0.15,-0.07
36552,1.03,0.17,-0.07
36565,1.05,0.15,-0.07
36578,1.03,0.15,-0.07
36590,1.05,0.15,-0.06
36603,1.03,0.15,-0.07
36615,1.03,0.15,-0.07
36628,1.03,0.17,-0.07
36643,1.03,0.15,-0.07
36661,1.03,0.17,-0.06
36674,1.03,0.15,-0.09
36692,1.03,0.15,-0.07
36704,1.03,0.15,-0.09
36722,1.03,0.17,-0.09
36741,1.05,0.15,-0.07
36755,1.03,0.15,-0.06
36768,1.05,0.15,-0.07
36780,1.05,0.17,-0.07
36793,1.05,0.15,-0.06
36806,1.05,0.17,-0.07
36818,1.03,0.17,-0.06
36831,1.05,0.15,-0.07
36843,1.05,0.17,-0.07
36856,1.03,0.15,-0.07
36869,1.03,0.15,-0.06
36881,1.03,0.17,-0.04
36894,1.03,0.17,-0.07
36906,1.03,0.17,-0.07
36919,1.03,0.17,-0.06
36934,1.03,0.15,-0.07
36950,1.03,0.17,-0.07
36962,1.05,0.15,-0.07
36975,1.03,0.15,-0.09
36990,1.03,0.15,-0.06
37009,1.03,0.15,-0.07
37021,1.03,0.17,-0.07
37035,1.03,0.15,-0.06
37047,1.03,0.15,-0.06
37060,1.03,0.15,-0.09
37072,1.05,0.15,-0.07
37085,1.03,0.17,-0.07
37098,1.03,0.14,-0.07
37111,1.03,0.15,-0.06
37129,1.05,0.14,-0.09
37144,1.03,0.17,-0.06
37160,1.05,0.17,-0.07
37172,1.03,0.15,-0.07
37185,1.03,0.17,-0.07
37197,1.03,0.15,-0.07
37210,1.03,0.17,-0.07
37223,1.03,0.15,-0.07
37235,1.03,0.17,-0.07
37248,1.03,0.17,-0.06
37260,1.03,0.15,-0.07
37273,1.03,0.17,-0.07
37285,1.03,0.15,-0.06
37298,1.03,0.15,-0.07
37311,1.02,0.15,-0.07
37323,1.03,0.15,-0.07
37337,1.05,0.15,-0.09
37355,1.03,0.15,-0.07
37368,1.03,0.15,-0.07
37380,1.03,0.15,-0.07
37393,1.03,0.15,-0.09
37405,1.03,0.15,-0.07
37418,1.03,0.17,-0.07
37430,1.03,0.15,-0.09
37443,1.03,0.15,-0.07
37457,1.03,0.17,-0.09
37475,1.03,0.15,-0.07
37487,1.03,0.17,-0.07
37505,1.03,0.17,-0.07
37518,1.03,0.17,-0.07
37536,1.03,0.15,-0.07
37549,1.03,0.15,-0.06
37565,1.03,0.15,-0.07
37580,1.05,0.15,-0.07
37592,1.03,0.17,-0.07
37605,1.03,0.15,-0.06
37617,1.03,0.15,-0.07
37630,1.03,0.17,-0.06
37644,1.05,0.14,-0.07
37656,1.05,0.15,-0.06
37669,1.05,0.15,-0.09
37682,1.03,0.17,-0.07
37694,1.03,0.15,-0.07
37707,1.03,0.15,-0.09
37720,1.02,0.15,-0.07
37733,1.03,0.17,-0.06
37745,1.03,0.15,-0.07
37761,1.03,0.15,-0.09
37776,1.05,0.15,-0.07
37789,1.03,0.15,-0.07
37802,1.03,0.17,-0.06
37814,1.03,0.15,-0.06
37830,1.05,0.17,-0.07
37842,1.03,0.17,-0.07
37855,1.03,0.17,-0.07
37868,1.03,0.15,-0.04
37880,1.02,0.17,-0.07
37893,1.03,0.15,-0.06
37906,1.03,0.15,-0.06
37918,1.03,0.15,-0.06
37932,1.03,0.15,-0.07
37945,1.03,0.17,-0.06
37961,1.03,0.15,-0.09
37976,1.03,0.15,-0.09
37989,1.05,0.15,-0.07
38005,1.03,0.17,-0.07
38024,1.05,0.15,-0.06
38036,1.03,0.15,-0.07
38049,1.03,0.15,-0.09
38062,1.03,0.17,-0.07
38075,1.03,0.15,-0.07
38090,1.03,0.15,-0.07
38109,1.03,0.15,-0.09
38121,1.03,0.17,-0.07
38134,1.05,0.17,-0.07
38147,1.05,0.15,-0.09
38159,1.03,0.15,-0.04
38172,1.03,0.17,-0.06
38190,1.05,0.17,-0.09
38204,1.03,0.15,-0.07
38217,1.05,0.15,-0.06
38230,1.05,0.15,-0.06
38242,1.05,0.17,-0.09
38255,1.03,0.15,-0.07
38268,1.03,0.15,-0.09
38280,1.05,0.17,-0.06
38293,1.03,0.17,-0.07
38306,1.05,0.15,-0.07
38321,1.03,0.15,-0.09
38339,1.03,0.15,-0.09
38352,1.03,0.15,-0.06
38365,1.03,0.17,-0.06
38377,1.03,0.17,-0.07
38394,1.03,0.15,-0.09
38408,1.03,0.17,-0.07
38421,1.03,0.15,-0.06
38434,1.05,0.15,-0.09
38446,1.05,0.15,-0.06
38462,1.03,0.15,-0.06
38480,1.05,0.15,-0.06
38493,1.03,0.15,-0.06
38506,1.03,0.15,-0.07
38518,1.03,0.15,-0.07
38531,1.03,0.17,-0.07
38544,1.03,0.15,-0.06
38558,1.03,0.15,-0.06
38577,1.03,0.15,-0.06
38589,1.03,0.15,-0.07
38606,1.03,0.17,-0.07
38620,1.05,0.15,-0.06
38633,1.03,0.17,-0.07
38651,1.03,0.15,-0.07
38664,1.05,0.15,-0.09
38681,1.03,0.15,-0.06
38694,1.03,0.15,-0.07
38712,1.03,0.15,-0.06
38725,1.03,0.15,-0.07
38743,1.03,0.15,-0.07
38756,1.05,0.15,-0.07
38768,1.05,0.15,-0.07
38781,1.05,0.17,-0.07
38794,1.05,0.15,-0.06
38807,1.05,0.15,-0.09
38819,1.03,0.15,-0.07
38838,1.03,0.15,-0.07
38850,1.05,0.17,-0.06
38869,1.03,0.17,-0.07
38883,1.03,0.15,-0.07
38895,1.03,0.15,-0.10
38908,1.03,0.15,-0.06
38921,1.03,0.15,-0.06
38939,1.03,0.17,-0.07
38952,1.03,0.17,-0.06
38966,1.03,0.15,-0.06
38978,1.03,0.17,-0.07
38991,1.05,0.15,-0.06
39009,1.03,0.17,-0.09
39022,1.05,0.17,-0.07
39035,1.03,0.15,-0.06
39053,1.03,0.15,-0.07
39066,1.03,0.15,-0.07
39078,1.03,0.15,-0.07
39091,1.05,0.17,-0.06
39107,1.03,0.15,-0.07
39125,1.03,0.15,-0.06
39138,1.03,0.15,-0.07
39151,1.05,0.17,-0.07
39163,1.03,0.15,-0.07
39176,1.03,0.15,-0.07
39190,1.03,0.15,-0.07
39203,1.03,0.14,-0.07
39215,1.03,0.17,-0.07
39228,1.03,0.15,-0.07
39241,1.03,0.15,-0.06
39259,1.03,0.15,-0.07
39272,1.05,0.15,-0.06
39285,1.03,0.15,-0.07
39297,1.03,0.15,-0.07
39316,1.03,0.15,-0.07
39328,1.03,0.15,-0.07
39342,1.03,0.17,-0.07
39355,1.03,0.15,-0.06
39367,1.03,0.17,-0.06
39380,1.03,0.15,-0.07
39392,1.03,0.15,-0.09
39405,1.03,0.15,-0.07
39418,1.05,0.15,-0.06
39433,1.05,0.15,-0.07
39451,1.05,0.17,-0.06
39468,1.03,0.17,-0.06
39484,1.03,0.15,-0.06
39496,1.03,0.15,-0.06
39510,1.03,0.15,-0.06
39523,1.05,0.14,-0.06
39535,1.03,0.17,-0.07
39547,1.03,0.17,-0.06
39560,1.03,0.17,-0.09
39572,1.03,0.17,-0.06
39585,1.05,0.15,-0.06
39597,1.03,0.15,-0.07
39615,1.03,0.17,-0.06
39627,1.03,0.15,-0.07
39640,1.03,0.15,-0.09
39652,1.03,0.17,-0.06
39667,1.03,0.17,-0.07
39686,1.03,0.15,-0.06
39698,1.03,0.15,-0.07
39712,1.03,0.17,-0.06
39725,1.05,0.17,-0.06
39738,1.03,0.15,-0.07
39750,1.03,0.17,-0.09
39763,1.03,0.17,-0.06
39775,1.03,0.15,-0.06
39788,1.03,0.15,-0.06
39805,1.05,0.15,-0.07
39818,1.03,0.15,-0.07
39831,1.03,0.15,-0.06
39843,1.03,0.17,-0.07
39855,1.03,0.17,-0.07
39873,1.03,0.15,-0.07
39886,1.05,0.15,-0.09
39898,1.05,0.15,-0.09
39911,1.05,0.17,-0.07
39923,1.03,0.15,-0.06
39935,1.03,0.15,-0.07
39948,1.03,0.17,-0.07
39960,1.05,0.15,-0.06
39973,1.05,0.17,-0.04
39985,1.03,0.15,-0.09
39998,1.03,0.15,-0.06
40010,1.03,0.15,-0.07
40028,1.03,0.17,-0.09
40040,1.03,0.15,-0.07
40058,1.03,0.15,-0.07
40078,1.05,0.15,-0.09
40091,1.03,0.17,-0.07
40105,1.03,0.15,-0.06
40118,1.03,0.15,-0.07
40131,1.03,0.17,-0.07
40146,1.03,0.17,-0.06
40165,1.05,0.15,-0.09
40177,1.03,0.15,-0.07
40190,1.03,0.17,-0.07
40203,1.03,0.17,-0.07
40215,1.03,0.15,-0.07
40228,1.03,0.17,-0.07
40241,1.03,0.17,-0.07
40254,1.03,0.17,-0.06
40266,1.03,0.15,-0.09
40281,1.05,0.15,-0.07
40297,1.03,0.15,-0.07
40310,1.03,0.15,-0.07
40323,1.05,0.17,-0.07
40336,1.03,0.15,-0.06
40348,1.03,0.17,-0.07
40361,1.05,0.17,-0.06
40374,1.05,0.15,-0.07
40386,1.05,0.15,-0.06
40400,1.03,0.15,-0.06
40413,1.05,0.15,-0.07
40426,1.05,0.15,-0.06
40440,1.03,0.15,-0.06
40452,1.03,0.17,-0.07
40471,1.05,0.17,-0.09
40486,1.05,0.15,-0.07
40502,1.03,0.15,-0.07
40514,1.03,0.15,-0.06
40527,1.05,0.15,-0.10
40540,1.03,0.17,-0.07
40552,1.03,0.17,-0.06
40565,1.05,0.15,-0.07
40578,1.03,0.17,-0.07
40596,1.03,0.15,-0.07
40609,1.03,0.15,-0.06
40622,1.05,0.15,-0.06
40634,1.03,0.15,-0.06
40647,1.05,0.15,-0.06
40660,1.03,0.17,-0.07
40672,1.03,0.17,-0.07
40685,1.03,0.14,-0.07
40703,1.05,0.15,-0.06
40723,1.03,0.17,-0.07
40735,1.05,0.15,-0.06
40748,1.05,0.15,-0.07
40761,1.03,0.15,-0.06
40774,1.03,0.14,-0.07
40792,1.03,0.15,-0.07
40806,1.05,0.17,-0.06
40818,1.03,0.15,-0.06
40831,1.03,0.15,-0.06
40844,1.03,0.17,-0.07
40859,1.03,0.15,-0.06
40877,1.05,0.17,-0.07
40890,1.03,0.15,-0.06
40903,1.03,0.15,-0.07
40921,1.03,0.15,-0.06
40934,1.03,0.17,-0.06
40947,1.03,0.15,-0.06
40959,1.03,0.17,-0.06
40975,1.03,0.17,-0.06
40993,1.05,0.15,-0.07
41006,1.03,0.15,-0.06
41024,1.03,0.15,-0.09
41038,1.03,0.15,-0.07
41051,1.03,0.15,-0.06
41066,1.03,0.17,-0.06
41084,1.03,0.15,-0.07
41097,1.03,0.17,-0.06
41110,1.05,0.17,-0.07
41122,1.05,0.15,-0.06
41139,1.03,0.15,-0.06
41153,1.03,0.15,-0.06
41166,1.03,0.15,-0.10
41179,1.03,0.17,-0.07
41193,1.03,0.15,-0.07
41205,1.03,0.15,-0.07
41218,1.03,0.15,-0.07
41231,1.03,0.17,-0.07
41243,1.03,0.17,-0.06
41256,1.05,0.15,-0.06
41269,1.03,0.15,-0.06
41281,1.03,0.17,-0.06
41294,1.05,0.15,-0.07
41307,1.03,0.15,-0.07
41325,1.03,0.17,-0.04
41343,1.05,0.14,-0.07
41358,1.03,0.15,-0.07
41370,1.03,0.17,-0.07
41383,1.03,0.15,-0.07
41396,1.03,0.15,-0.07
41408,1.03,0.17,-0.07
41421,1.03,0.15,-0.06
41434,1.03,0.17,-0.06
41447,1.03,0.17,-0.06
41459,1.03,0.15,-0.04
41472,1.05,0.15,-0.07
41485,1.03,0.17,-0.06
41497,1.03,0.15,-0.07
41515,1.05,0.15,-0.07
41528,1.03,0.15,-0.06
41541,1.03,0.14,-0.07
41560,1.05,0.15,-0.06
41573,1.05,0.15,-0.07
41586,1.03,0.15,-0.07
41599,1.03,0.15,-0.07
41611,1.03,0.15,-0.07
41624,1.03,0.15,-0.06
41638,1.03,0.15,-0.06
41656,1.03,0.15,-0.07
41669,1.03,0.15,-0.06
41681,1.03,0.15,-0.06
41694,1.03,0.15,-0.06
41707,1.03,0.15,-0.09
41720,1.03,0.15,-0.07
41732,1.03,0.15,-0.07
41745,1.03,0.15,-0.07
41763,1.03,0.17,-0.07
41782,1.05,0.17,-0.09
41794,1.03,0.15,-0.06
41807,1.03,0.17,-0.06
41820,1.03,0.15,-0.07
41833,1.03,0.15,-0.07
41845,1.03,0.17,-0.07
41858,1.03,0.17,-0.06
41871,1.03,0.17,-0.06
41884,1.03,0.15,-0.07
41899,1.05,0.15,-0.06
41917,1.02,0.17,-0.06
41931,1.05,0.15,-0.07
41944,1.03,0.15,-0.07
41958,1.03,0.17,-0.06
41976,1.03,0.17,-0.06
41988,1.03,0.17,-0.07
42001,1.05,0.15,-0.09
42014,1.03,0.15,-0.06
42026,1.05,0.14,-0.07
42039,1.03,0.15,-0.04
42051,1.03,0.17,-0.06
42064,1.03,0.15,-0.06
42076,1.05,0.17,-0.09
42089,1.03,0.15,-0.09
42102,1.03,0.15,-0.07
42114,1.03,0.15,-0.06
42127,1.03,0.17,-0.06
42139,1.03,0.15,-0.07
42152,1.03,0.15,-0.07
42169,1.03,0.17,-0.06
42183,1.05,0.15,-0.09
42195,1.03,0.15,-0.06
42213,1.03,0.15,-0.06
42226,1.05,0.17,-0.07
42244,1.03,0.15,-0.07
42257,1.03,0.17,-0.07
42270,1.05,0.15,-0.07
42283,1.03,0.15,-0.06
42296,1.05,0.17,-0.07
42314,1.03,0.17,-0.07
42327,1.03,0.15,-0.06
42345,1.03,0.17,-0.06
42357,1.03,0.17,-0.09
42375,1.03,0.17,-0.06
42390,1.05,0.15,-0.07
42405,1.03,0.15,-0.07
42418,1.05,0.14,-0.07
42435,1.03,0.15,-0.07
42448,1.05,0.15,-0.09
42466,1.05,0.15,-0.07
42478,1.05,0.15,-0.06
42493,1.03,0.17,-0.06
42508,1.03,0.17,-0.06
42526,1.05,0.17,-0.06
42539,1.05,0.18,-0.07
42556,1.05,0.15,-0.07
42569,1.03,0.15,-0.06
42585,1.05,0.17,-0.07
42598,1.03,0.15,-0.06
42610,1.03,0.17,-0.07
42628,1.03,0.15,-0.06
42641,1.03,0.15,-0.06
42654,1.03,0.15,-0.06
42666,1.03,0.15,-0.07
42679,1.03,0.17,-0.06
42692,1.03,0.15,-0.06
42705,1.05,0.15,-0.09
42718,1.05,0.15,-0.07
42730,1.03,0.17,-0.06
42743,1.03,0.15,-0.06
42755,1.03,0.15,-0.07
42768,1.03,0.15,-0.06
42780,1.05,0.15,-0.06
42793,1.03,0.17,-0.06
42806,1.05,0.15,-0.06
42822,1.05,0.15,-0.06
42836,1.03,0.15,-0.06
42849,1.03,0.15,-0.07
42862,1.03,0.15,-0.06
42875,1.03,0.15,-0.07
42888,1.03,0.15,-0.07
42901,1.03,0.15,-0.07
42913,1.03,0.17,-0.06
42926,1.03,0.15,-0.06
42938,1.03,0.15,-0.07
42951,1.05,0.15,-0.07
42963,1.03,0.15,-0.09
42976,1.05,0.15,-0.07
42989,1.03,0.15,-0.07
43001,1.05,0.15,-0.06
43016,1.03,0.17,-0.07
43032,1.05,0.15,-0.07
43046,1.05,0.17,-0.07
43064,1.03,0.15,-0.06
43076,1.03,0.17,-0.06
43089,1.03,0.17,-0.07
43102,1.03,0.15,-0.07
43115,1.05,0.17,-0.07
43128,1.03,0.17,-0.07
43141,1.03,0.15,-0.07
43159,1.03,0.15,-0.07
43172,1.03,0.17,-0.09
43186,1.05,0.15,-0.09
43199,1.05,0.17,-0.04
43212,1.05,0.17,-0.06
43227,1.05,0.17,-0.07
43243,1.05,0.15,-0.07
43256,1.03,0.17,-0.07
43269,1.03,0.15,-0.07
43281,1.03,0.17,-0.09
43300,1.03,0.15,-0.09
43313,1.03,0.15,-0.07
43325,1.03,0.17,-0.07
43338,1.03,0.17,-0.06
43351,1.05,0.15,-0.09
43363,1.03,0.17,-0.06
43376,1.03,0.15,-0.07
43389,1.03,0.17,-0.06
43402,1.05,0.15,-0.07
43418,1.03,0.15,-0.09
43431,1.03,0.17,-0.06
43449,1.03,0.15,-0.07
43462,1.03,0.15,-0.06
43480,1.03,0.15,-0.06
43494,1.03,0.17,-0.04
43507,1.03,0.15,-0.07
43520,1.05,0.15,-0.07
43532,1.03,0.17,-0.07
43548,1.03,0.17,-0.06
43566,1.03,0.15,-0.06
43579,1.03,0.17,-0.07
43592,1.03,0.15,-0.06
43604,1.03,0.17,-0.06
43617,1.05,0.15,-0.06
43630,1.03,0.17,-0.07
43642,1.03,0.17,-0.07
43660,1.05,0.15,-0.06
43673,1.03,0.17,-0.07
43686,1.03,0.17,-0.07
43698,1.03,0.17,-0.07
43716,1.03,0.15,-0.06
43729,1.03,0.17,-0.09
43747,1.03,0.15,-0.07
43760,1.05,0.15,-0.07
43778,1.03,0.15,-0.06
43790,1.05,0.15,-0.07
43811,1.03,0.15,-0.09
43829,1.05,0.15,-0.09
43842,1.05,0.15,-0.06
43854,1.03,0.15,-0.06
43867,1.05,0.17,-0.07
43885,1.03,0.17,-0.07
43898,1.03,0.17,-0.07
43911,1.05,0.15,-0.07
43929,1.03,0.15,-0.06
43942,1.03,0.17,-0.07
43954,1.03,0.17,-0.06
43967,1.03,0.15,-0.07
43980,1.05,0.15,-0.07
43993,1.03,0.15,-0.07
44005,1.03,0.17,-0.09
44018,1.03,0.15,-0.06
44031,1.05,0.15,-0.07
44043,1.03,0.15,-0.07
44056,1.03,0.17,-0.06
44069,1.03,0.15,-0.07
44084,1.03,0.17,-0.07
44099,1.03,0.15,-0.07
44113,1.03,0.17,-0.07
44126,1.03,0.15,-0.04
44139,1.03,0.15,-0.06
44151,1.03,0.15,-0.06
44167,1.03,0.15,-0.07
44186,1.03,0.17,-0.07
44199,1.03,0.15,-0.07
44212,1.03,0.15,-0.07
44224,1.03,0.15,-0.07
44237,1.03,0.15,-0.07
44253,1.03,0.17,-0.07
44271,1.03,0.15,-0.07
44284,1.05,0.15,-0.07
44299,1.03,0.15,-0.09
44315,1.03,0.17,-0.07
44327,1.03,0.17,-0.07
44340,1.03,0.15,-0.07
44353,1.03,0.17,-0.06
44368,1.05,0.15,-0.06
44386,1.03,0.15,-0.06
44399,1.03,0.15,-0.09
44412,1.03,0.17,-0.04
44424,1.03,0.17,-0.07
44438,1.03,0.17,-0.09
44451,1.03,0.17,-0.06
44463,1.03,0.17,-0.06
44476,1.03,0.17,-0.06
44488,1.03,0.15,-0.06
44501,1.03,0.15,-0.07
44519,1.05,0.15,-0.06
44537,1.03,0.15,-0.07
44550,1.03,0.15,-0.09
44568,1.05,0.15,-0.07
44580,1.03,0.15,-0.07
44598,1.03,0.17,-0.07
44611,1.03,0.15,-0.06
44623,1.03,0.17,-0.09
44636,1.03,0.15,-0.07
44649,1.03,0.17,-0.07
44661,1.05,0.17,-0.07
44674,1.03,0.15,-0.04
44686,1.03,0.17,-0.07
44699,1.03,0.17,-0.06
44711,1.03,0.15,-0.06
44728,1.03,0.15,-0.07
44743,1.03,0.15,-0.07
44756,1.03,0.15,-0.06
44774,1.05,0.14,-0.07
44787,1.03,0.15,-0.06
44804,1.03,0.15,-0.09
44817,1.03,0.15,-0.06
44835,1.05,0.15,-0.07
44847,1.03,0.17,-0.06
44865,1.03,0.15,-0.06
44878,1.03,0.15,-0.06
44895,1.03,0.17,-0.07
44908,1.03,0.17,-0.06
44926,1.03,0.17,-0.09
44939,1.03,0.15,-0.07
44965,1.03,0.17,-0.07
44979,1.03,0.17,-0.07
44992,1.03,0.17,-0.07
45004,1.05,0.15,-0.04
45017,1.03,0.15,-0.07
45029,1.03,0.15,-0.06
45042,1.03,0.15,-0.06
45054,1.03,0.15,-0.07
45068,1.05,0.15,-0.06
45081,1.03,0.15,-0.06
45094,1.03,0.17,-0.07
45112,1.05,0.15,-0.07
45125,1.03,0.15,-0.07
45137,1.03,0.17,-0.07
45150,1.03,0.17,-0.07
45163,1.05,0.15,-0.07
45184,1.03,0.17,-0.09
45200,1.03,0.15,-0.06
45212,1.03,0.15,-0.06
45225,1.03,0.17,-0.06
45238,1.03,0.15,-0.07
45251,1.05,0.15,-0.04
45263,1.03,0.14,-0.06
45276,1.03,0.17,-0.06
45289,1.03,0.15,-0.07
45301,1.05,0.15,-0.06
45315,1.03,0.15,-0.07
45328,1.03,0.15,-0.07
45340,1.03,0.17,-0.06
45353,1.03,0.17,-0.06
45365,1.03,0.15,-0.07
45383,1.03,0.15,-0.07
45396,1.03,0.15,-0.07
45408,1.05,0.15,-0.06
45421,1.03,0.15,-0.07
45434,1.03,0.15,-0.06
45446,1.03,0.17,-0.09
45459,1.03,0.17,-0.07
45471,1.03,0.17,-0.06
45484,1.03,0.17,-0.06
45496,1.05,0.15,-0.06
45509,1.03,0.15,-0.04
45522,1.03,0.15,-0.07
45534,1.03,0.15,-0.06
45547,1.03,0.15,-0.06
45559,1.03,0.17,-0.07
45574,1.03,0.17,-0.06
45590,1.03,0.17,-0.07
45602,1.05,0.17,-0.07
45615,1.03,0.14,-0.06
45627,1.03,0.15,-0.06
45640,1.03,0.17,-0.06
45655,1.03,0.17,-0.06
45679,1.03,0.17,-0.07
45692,1.03,0.15,-0.06
45704,1.03,0.15,-0.07
45717,1.03,0.15,-0.07
45729,1.05,0.15,-0.06
45742,1.05,0.15,-0.07
45754,1.03,0.15,-0.07
45767,1.03,0.17,-0.04
45784,1.03,0.17,-0.06
45797,1.03,0.14,-0.06
45810,1.03,0.15,-0.07
45822,1.03,0.17,-0.06
45835,1.03,0.15,-0.04
45847,1.03,0.14,-0.07
45860,1.05,0.17,-0.06
45872,1.03,0.15,-0.06
45885,1.03,0.15,-0.07
45898,1.03,0.15,-0.06
45910,1.03,0.15,-0.06
45923,1.05,0.15,-0.09
45935,1.05,0.15,-0.06
45948,1.05,0.17,-0.07
45962,1.03,0.15,-0.07
45985,1.03,0.17,-0.07
45998,1.05,0.17,-0.09
46010,1.03,0.17,-0.07
46023,1.03,0.17,-0.04
46037,1.03,0.15,-0.06
46049,1.03,0.15,-0.06
46062,1.03,0.17,-0.06
46080,1.03,0.15,-0.04
46093,1.03,0.17,-0.07
46106,1.05,0.15,-0.07
46118,1.03,0.15,-0.06
46131,1.03,0.15,-0.09
46144,1.03,0.15,-0.06
46156,1.05,0.17,-0.06
46169,1.05,0.17,-0.07
46186,1.03,0.15,-0.06
46200,1.03,0.15,-0.07
46213,1.03,0.15,-0.06
46231,1.03,0.15,-0.06
46244,1.05,0.15,-0.06
46256,1.05,0.15,-0.07
46270,1.03,0.17,-0.07
46283,1.03,0.15,-0.07
46301,1.03,0.17,-0.06
46314,1.03,0.15,-0.07
46327,1.03,0.15,-0.06
46339,1.03,0.15,-0.06
46352,1.03,0.15,-0.07
46365,1.05,0.17,-0.09
46378,1.03,0.17,-0.07
46393,1.05,0.15,-0.06
46410,1.03,0.17,-0.07
46422,1.03,0.15,-0.06
46435,1.05,0.17,-0.06
46448,1.05,0.15,-0.07
46461,1.03,0.17,-0.06
46473,1.05,0.17,-0.07
46489,1.03,0.14,-0.06
46507,1.05,0.17,-0.09
46520,1.03,0.15,-0.07
46533,1.03,0.15,-0.06
46551,1.05,0.15,-0.07
46564,1.03,0.15,-0.06
46576,1.03,0.15,-0.07
46590,1.03,0.15,-0.07
46606,1.03,0.17,-0.07
46622,1.05,0.17,-0.09
46635,1.03,0.15,-0.06
46648,1.03,0.15,-0.06
46661,1.03,0.15,-0.07
46674,1.03,0.17,-0.06
46686,1.03,0.15,-0.06
46699,1.03,0.15,-0.07
46712,1.03,0.17,-0.07
46725,1.03,0.15,-0.07
46743,1.03,0.17,-0.06
46756,1.03,0.17,-0.06
46769,1.05,0.17,-0.06
46783,1.03,0.15,-0.07
46796,1.03,0.17,-0.06
46808,1.03,0.15,-0.06
46827,1.03,0.17,-0.07
46840,1.05,0.15,-0.06
46852,1.03,0.15,-0.06
46865,1.03,0.15,-0.06
46880,1.03,0.17,-0.06
46900,1.03,0.17,-0.06
46912,1.03,0.15,-0.07
46925,1.05,0.15,-0.07
46937,1.03,0.15,-0.06
46950,1.03,0.17,-0.06
46963,1.03,0.17,-0.06
46975,1.03,0.17,-0.06
46988,1.03,0.17,-0.07
47000,1.03,0.17,-0.07
47013,1.03,0.15,-0.06
47031,1.03,0.15,-0.07
47049,1.05,0.15,-0.07
47061,1.03,0.18,-0.06
47079,1.03,0.15,-0.07
47092,1.05,0.15,-0.06
47110,1.03,0.17,-0.07
47123,1.03,0.15,-0.06
47141,1.05,0.15,-0.06
47153,1.03,0.15,-0.07
47172,1.03,0.17,-0.07
47185,1.05,0.15,-0.06
47198,1.03,0.15,-0.07
47211,1.05,0.15,-0.09
47224,1.05,0.17,-0.09
47236,1.03,0.15,-0.06
47254,1.03,0.15,-0.09
47272,1.03,0.15,-0.06
47285,1.03,0.15,-0.07
47297,1.03,0.17,-0.06
47310,1.03,0.15,-0.07
47323,1.03,0.15,-0.09
47335,1.03,0.15,-0.06
47348,1.03,0.15,-0.06
47360,1.03,0.15,-0.06
47373,1.05,0.17,-0.06
47385,1.03,0.15,-0.07
47398,1.03,0.17,-0.07
47410,1.03,0.15,-0.06
47423,1.03,0.15,-0.07
47435,1.03,0.17,-0.07
47448,1.02,0.15,-0.06
47466,1.03,0.15,-0.09
47479,1.03,0.15,-0.07
47491,1.05,0.15,-0.07
47507,1.03,0.15,-0.07
47520,1.03,0.15,-0.07
47539,1.03,0.15,-0.09
47552,1.03,0.15,-0.07
47564,1.03,0.15,-0.07
47577,1.03,0.15,-0.06
47590,1.03,0.15,-0.07
47608,1.05,0.17,-0.07
47621,1.03,0.17,-0.06
47634,1.03,0.15,-0.06
47646,1.03,0.15,-0.06
47659,1.03,0.15,-0.09
47679,1.03,0.15,-0.06
47692,1.05,0.17,-0.06
47704,1.03,0.17,-0.07
47717,1.03,0.18,-0.06
47730,1.03,0.17,-0.07
47743,1.05,0.17,-0.06
47755,1.05,0.17,-0.06
47771,1.02,0.17,-0.06
47789,1.03,0.17,-0.06
47802,1.03,0.15,-0.07
47815,1.03,0.15,-0.06
47829,1.05,0.17,-0.07
47841,1.05,0.15,-0.04
47860,1.05,0.17,-0.07
47873,1.03,0.15,-0.06
47891,1.03,0.15,-0.09
47903,1.03,0.15,-0.06
47918,1.05,0.15,-0.04
47930,1.03,0.15,-0.06
47943,1.03,0.15,-0.07
47956,1.05,0.17,-0.07
47968,1.03,0.15,-0.07
47981,1.03,0.17,-0.07
47994,1.03,0.17,-0.06
48007,1.05,0.15,-0.07
48019,1.03,0.17,-0.07
48032,1.05,0.15,-0.07
48050,1.05,0.15,-0.07
48063,1.03,0.15,-0.07
48076,1.05,0.15,-0.07
48092,1.03,0.15,-0.07
48111,1.03,0.17,-0.06
48124,1.03,0.15,-0.04
48138,1.03,0.15,-0.07
48156,1.05,0.15,-0.06
48169,1.03,0.15,-0.07
48182,1.05,0.17,-0.06
48194,1.05,0.15,-0.09
48207,1.03,0.15,-0.04
48220,1.03,0.17,-0.07
48232,1.03,0.15,-0.06
48245,1.05,0.17,-0.06
48258,1.03,0.14,-0.04
48270,1.03,0.15,-0.06
48284,1.03,0.15,-0.07
48302,1.03,0.17,-0.06
48315,1.03,0.15,-0.09
48328,1.03,0.17,-0.06
48340,1.03,0.15,-0.06
48353,1.05,0.17,-0.07
48365,1.03,0.17,-0.07
48378,1.03,0.15,-0.07
48391,1.03,0.15,-0.07
48403,1.03,0.17,-0.07
48416,1.05,0.17,-0.07
48432,1.03,0.17,-0.07
48445,1.03,0.17,-0.07
48457,1.03,0.17,-0.07
48470,1.03,0.15,-0.06
48482,1.03,0.17,-0.06
48498,1.03,0.17,-0.06
48513,1.03,0.15,-0.07
48525,1.02,0.15,-0.07
48538,1.03,0.15,-0.06
48551,1.03,0.15,-0.07
48563,1.03,0.15,-0.06
48576,1.03,0.17,-0.07
48588,1.03,0.15,-0.07
48601,1.03,0.17,-0.06
48613,1.03,0.15,-0.07
48627,1.03,0.17,-0.06
48640,1.03,0.15,-0.07
48658,1.03,0.17,-0.07
48670,1.03,0.15,-0.07
48688,1.03,0.15,-0.07
48701,1.03,0.15,-0.07
48725,1.03,0.15,-0.06
48739,1.03,0.15,-0.06
48752,1.03,0.17,-0.07
48764,1.03,0.15,-0.07
48777,1.03,0.15,-0.07
48789,1.03,0.15,-0.06
48802,1.05,0.15,-0.07
48815,1.03,0.17,-0.07
48827,1.03,0.15,-0.07
48840,1.03,0.15,-0.07
48852,1.03,0.15,-0.07
48865,1.03,0.15,-0.06
48877,1.03,0.15,-0.06
48890,1.03,0.17,-0.06
48903,1.05,0.15,-0.04
48920,1.05,0.17,-0.07
48934,1.03,0.17,-0.07
48946,1.03,0.15,-0.07
48959,1.03,0.15,-0.09
48971,1.03,0.15,-0.04
48987,1.03,0.15,-0.07
49006,1.03,0.15,-0.06
49018,1.03,0.17,-0.07
49031,1.03,0.15,-0.09
49045,1.03,0.15,-0.06
49058,1.03,0.15,-0.07
49070,1.03,0.17,-0.06
49083,1.03,0.15,-0.06
49096,1.03,0.15,-0.07
49109,1.05,0.15,-0.04
49126,1.03,0.15,-0.06
49140,1.03,0.15,-0.06
49152,1.03,0.15,-0.07
49171,1.03,0.15,-0.06
49183,1.03,0.17,-0.06
49196,1.05,0.17,-0.06
49209,1.05,0.15,-0.07
49221,1.03,0.15,-0.07
49234,1.03,0.15,-0.07
49247,1.03,0.15,-0.06
49260,1.03,0.15,-0.09
49272,1.03,0.15,-0.07
49285,1.03,0.15,-0.07
49298,1.03,0.15,-0.06
49313,1.03,0.17,-0.07
49332,1.05,0.15,-0.07
49351,1.03,0.17,-0.06
49363,1.05,0.15,-0.06
49383,1.03,0.15,-0.06
49395,1.03,0.17,-0.09
49408,1.05,0.17,-0.07
49421,1.03,0.15,-0.07
49433,1.03,0.15,-0.07
49446,1.03,0.17,-0.07
49458,1.03,0.15,-0.06
49471,1.03,0.15,-0.07
49483,1.03,0.15,-0.07
49496,1.03,0.15,-0.07
49509,1.03,0.15,-0.09
49521,1.03,0.15,-0.06
49534,1.03,0.17,-0.07
49552,1.03,0.17,-0.04
49565,1.03,0.17,-0.06
49578,1.03,0.15,-0.06
49590,1.03,0.17,-0.07
49603,1.03,0.17,-0.09
49615,1.05,0.15,-0.04
49628,1.03,0.15,-0.04
49642,1.03,0.15,-0.06
49654,1.03,0.15,-0.07
49674,1.03,0.17,-0.06
49687,1.03,0.15,-0.07
49699,1.03,0.15,-0.07
49715,1.03,0.15,-0.07
49733,1.03,0.15,-0.06
49747,1.05,0.15,-0.04
49765,1.05,0.17,-0.06
49780,1.05,0.15,-0.06
49798,1.03,0.15,-0.07
49811,1.03,0.17,-0.06
49829,1.03,0.15,-0.06
49841,1.05,0.17,-0.04
49859,1.03,0.17,-0.07
49872,1.03,0.15,-0.06
49890,1.05,0.15,-0.04
49903,1.03,0.17,-0.07
49915,1.05,0.15,-0.06
49928,1.03,0.15,-0.06
49940,1.03,0.17,-0.07
49953,1.03,0.17,-0.06
49967,1.03,0.15,-0.07
49984,1.05,0.15,-0.07
49998,1.03,0.15,-0.07
50011,1.03,0.17,-0.07
50028,1.03,0.17,-0.06
50041,1.03,0.15,-0.07
50054,1.03,0.15,-0.06
50066,1.05,0.17,-0.06
50079,1.03,0.15,-0.07
50092,1.03,0.15,-0.06
50108,1.03,0.17,-0.07
50121,1.03,0.17,-0.07
50135,1.03,0.17,-0.07
50148,1.05,0.15,-0.07
50161,1.03,0.15,-0.06
50174,1.03,0.15,-0.06
50189,1.03,0.17,-0.07
50205,1.03,0.15,-0.07
50218,1.03,0.17,-0.06
50236,1.03,0.15,-0.06
50249,1.03,0.15,-0.07
50262,1.05,0.17,-0.06
50275,1.05,0.15,-0.06
50289,1.03,0.17,-0.06
50307,1.05,0.17,-0.06
50319,1.05,0.17,-0.07
50332,1.03,0.15,-0.07
50345,1.03,0.15,-0.09
50358,1.03,0.15,-0.06
50370,1.05,0.14,-0.06
50383,1.03,0.15,-0.07
50396,1.03,0.15,-0.07
50414,1.03,0.15,-0.06
50433,1.03,0.15,-0.07
50445,1.03,0.15,-0.06
50458,1.05,0.15,-0.04
50471,1.03,0.17,-0.07
50483,1.03,0.15,-0.06
50496,1.03,0.17,-0.06
50510,1.03,0.15,-0.07
50523,1.03,0.15,-0.06
50535,1.03,0.15,-0.07
50548,1.03,0.15,-0.04
50561,1.05,0.15,-0.07
50574,1.03,0.15,-0.06
50587,1.03,0.17,-0.06
50600,1.03,0.15,-0.07
50622,1.05,0.15,-0.09
50634,1.03,0.15,-0.07
50647,1.03,0.17,-0.06
50660,1.03,0.15,-0.07
50673,1.03,0.15,-0.06
50685,1.03,0.15,-0.06
50703,1.05,0.17,-0.06
50716,1.03,0.17,-0.06
50729,1.05,0.15,-0.09
50742,1.03,0.17,-0.07
50754,1.05,0.15,-0.07
50767,1.05,0.17,-0.07
50780,1.03,0.15,-0.06
50792,1.03,0.15,-0.04
50805,1.03,0.15,-0.06
50823,1.03,0.15,-0.07
50836,1.05,0.15,-0.06
50854,1.03,0.17,-0.09
50867,1.03,0.15,-0.07
50881,1.03,0.15,-0.04
50899,1.03,0.17,-0.06
50912,1.03,0.17,-0.06
50925,1.03,0.15,-0.06
50938,1.03,0.17,-0.09
50950,1.03,0.15,-0.06
50963,1.05,0.15,-0.06
50976,1.05,0.17,-0.06
50988,1.05,0.17,-0.07
51001,1.03,0.15,-0.07
51014,1.03,0.15,-0.07
51031,1.03,0.17,-0.06
51045,1.03,0.17,-0.06
51058,1.03,0.15,-0.06
51070,1.03,0.17,-0.07
51083,1.03,0.15,-0.09
51096,1.03,0.17,-0.07
51109,1.03,0.15,-0.06
51121,1.05,0.15,-0.07
51134,1.03,0.17,-0.06
51147,1.05,0.17,-0.07
51162,1.03,0.15,-0.06
51181,1.05,0.15,-0.07
51195,1.03,0.15,-0.06
51207,1.03,0.15,-0.07
51220,1.03,0.15,-0.07
51235,1.05,0.17,-0.07
51252,1.05,0.15,-0.07
51265,1.03,0.17,-0.07
51277,1.03,0.17,-0.04
51290,1.03,0.17,-0.07
51303,1.05,0.17,-0.07
51315,1.03,0.17,-0.09
51328,1.05,0.15,-0.07
51340,1.05,0.15,-0.07
51353,1.03,0.15,-0.06
51368,1.03,0.15,-0.06
51386,1.03,0.15,-0.06
51399,1.03,0.15,-0.06
51417,1.03,0.17,-0.07
51429,1.05,0.15,-0.06
51442,1.05,0.15,-0.09
51460,1.03,0.15,-0.07
51473,1.05,0.18,-0.07
51486,1.05,0.17,-0.06
51498,1.03,0.15,-0.07
51512,1.03,0.15,-0.04
51525,1.03,0.17,-0.06
51537,1.05,0.15,-0.06
51550,1.03,0.17,-0.07
51562,1.05,0.17,-0.06
51575,1.03,0.17,-0.06
51587,1.05,0.17,-0.06
51600,1.03,0.17,-0.06
51614,1.05,0.15,-0.07
51626,1.03,0.17,-0.07
51639,1.03,0.15,-0.06
51657,1.05,0.15,-0.06
51670,1.05,0.15,-0.04
51688,1.05,0.17,-0.07
51700,1.03,0.17,-0.09
51718,1.03,0.17,-0.07
51731,1.03,0.14,-0.06
51749,1.05,0.15,-0.06
51761,1.03,0.17,-0.06
51779,1.03,0.15,-0.06
51792,1.03,0.15,-0.06
51810,1.05,0.15,-0.07
51824,1.03,0.17,-0.06
51836,1.03,0.17,-0.06
51849,1.03,0.17,-0.06
51861,1.05,0.15,-0.09
51878,1.03,0.15,-0.06
51892,1.03,0.15,-0.06
51904,1.03,0.15,-0.06
51917,1.03,0.17,-0.06
51929,1.03,0.15,-0.07
51942,1.03,0.15,-0.04
51954,1.03,0.15,-0.07
51967,1.03,0.15,-0.07
51979,1.03,0.15,-0.06
51993,1.03,0.17,-0.07
52011,1.03,0.17,-0.06
52023,1.03,0.17,-0.07
52041,1.03,0.17,-0.07
52054,1.03,0.15,-0.07
52072,1.03,0.17,-0.06
52087,1.05,0.15,-0.06
52103,1.03,0.17,-0.07
52115,1.03,0.17,-0.07
52129,1.03,0.17,-0.06
52145,1.03,0.17,-0.06
52163,1.03,0.15,-0.06
52175,1.03,0.17,-0.06
52188,1.03,0.15,-0.06
52200,1.03,0.17,-0.06
52213,1.03,0.15,-0.07
52226,1.05,0.15,-0.06
52238,1.03,0.15,-0.07
52251,1.05,0.15,-0.07
52263,1.03,0.17,-0.07
52276,1.05,0.15,-0.06
52288,1.03,0.17,-0.07
52306,1.03,0.17,-0.07
52319,1.03,0.17,-0.06
52332,1.03,0.15,-0.07
52344,1.05,0.15,-0.06
52357,1.03,0.17,-0.07
52371,1.03,0.17,-0.06
52389,1.03,0.17,-0.06
52401,1.03,0.17,-0.06
52419,1.03,0.17,-0.04
52432,1.03,0.15,-0.07
52450,1.03,0.17,-0.06
52462,1.03,0.15,-0.04
52481,1.03,0.17,-0.06
52493,1.03,0.15,-0.06
52506,1.03,0.17,-0.07
52523,1.03,0.15,-0.09
52537,1.03,0.15,-0.06
52550,1.03,0.15,-0.06
52563,1.03,0.15,-0.06
52578,1.05,0.15,-0.07
52596,1.03,0.15,-0.07
52609,1.03,0.17,-0.07
52622,1.03,0.15,-0.07
52634,1.05,0.15,-0.07
52647,1.05,0.15,-0.07
52660,1.03,0.15,-0.06
52673,1.05,0.15,-0.07
52685,1.03,0.15,-0.07
52698,1.05,0.15,-0.07
52711,1.03,0.17,-0.06
52723,1.03,0.15,-0.06
52742,1.03,0.17,-0.09
52757,1.03,0.17,-0.06
52770,1.05,0.17,-0.06
52782,1.03,0.15,-0.04
52795,1.03,0.17,-0.06
52808,1.05,0.15,-0.04
52821,1.03,0.17,-0.07
52833,1.05,0.15,-0.06
52846,1.03,0.15,-0.06
52859,1.03,0.17,-0.06
52871,1.03,0.15,-0.04
52884,1.03,0.17,-0.04
52899,1.03,0.17,-0.06
52918,1.03,0.15,-0.06
52930,1.03,0.15,-0.06
52949,1.05,0.15,-0.07
52961,1.05,0.15,-0.06
52974,1.03,0.15,-0.07
52987,1.05,0.15,-0.07
53000,1.05,0.15,-0.06
53015,1.03,0.15,-0.06
53034,1.03,0.14,-0.07
53046,1.03,0.17,-0.07
53060,1.03,0.15,-0.04
53076,1.03,0.15,-0.07
53094,1.03,0.17,-0.07
53106,1.03,0.15,-0.06
53119,1.03,0.15,-0.06
53133,1.03,0.17,-0.04
53146,1.03,0.15,-0.07
53165,1.05,0.15,-0.07
53177,1.03,0.17,-0.06
53190,1.05,0.14,-0.04
53203,1.05,0.15,-0.06
53216,1.05,0.15,-0.06
53228,1.03,0.15,-0.06
53241,1.03,0.15,-0.07
53254,1.05,0.17,-0.06
53266,1.05,0.15,-0.06
53287,1.03,0.15,-0.07
53305,1.03,0.17,-0.06
53318,1.03,0.15,-0.07
53330,1.03,0.15,-0.06
53343,1.03,0.15,-0.07
53356,1.03,0.15,-0.06
53375,1.03,0.17,-0.06
53388,1.03,0.17,-0.06
53400,1.05,0.17,-0.06
53413,1.03,0.15,-0.09
53426,1.03,0.17,-0.07
53438,1.03,0.15,-0.07
53451,1.05,0.15,-0.07
53464,1.05,0.15,-0.06
53477,1.03,0.15,-0.07
53490,1.03,0.14,-0.06
53882,1.03,0.17,-0.06
54411,1.03,0.15,-0.07
54971,1.03,0.17,-0.07
55450,1.03,0.15,-0.06
55979,1.03,0.17,-0.04
56486,1.03,0.15,-0.06
57010,1.03,0.17,-0.06
57023,1.03,0.17,-0.06
57036,1.03,0.17,-0.07
57049,1.03,0.17,-0.06
57061,1.03,0.17,-0.07
57074,1.03,0.15,-0.06
57087,1.05,0.15,-0.06
57103,1.05,0.15,-0.06
57116,1.05,0.17,-0.06
57129,1.03,0.17,-0.07
57142,1.03,0.15,-0.07
57157,1.05,0.15,-0.09
57173,1.03,0.17,-0.07
57188,1.03,0.15,-0.06
57203,1.03,0.15,-0.07
57219,1.03,0.18,-0.07
57239,1.03,0.15,-0.07
57254,1.05,0.15,-0.06
57270,1.03,0.15,-0.06
57285,1.05,0.14,-0.07
57301,1.05,0.15,-0.06
57314,1.03,0.15,-0.06
57326,1.03,0.15,-0.06
57339,1.03,0.15,-0.06
57352,1.03,0.15,-0.06
57364,1.03,0.17,-0.06
57377,1.03,0.15,-0.07
57389,1.03,0.15,-0.07
57402,1.03,0.17,-0.07
57415,1.05,0.15,-0.06
57431,1.03,0.17,-0.06
57448,1.03,0.15,-0.04
57461,1.03,0.17,-0.07
57476,1.03,0.15,-0.07
57492,1.03,0.17,-0.07
57507,1.05,0.15,-0.07
57522,1.03,0.15,-0.07
57538,1.03,0.15,-0.06
57553,1.05,0.15,-0.06
57568,1.05,0.15,-0.06
57584,1.03,0.15,-0.07
57599,1.05,0.17,-0.07
57614,1.03,0.17,-0.07
57630,1.03,0.15,-0.07
57645,1.03,0.17,-0.06
57660,1.05,0.15,-0.07
57677,1.03,0.15,-0.06
57691,1.05,0.15,-0.07
57704,1.03,0.17,-0.06
57716,1.03,0.17,-0.06
57731,1.03,0.15,-0.06
57747,1.05,0.15,-0.07
57760,1.03,0.15,-0.04
57772,1.03,0.17,-0.07
57787,1.03,0.15,-0.06
57799,1.03,0.17,-0.06
57811,1.05,0.15,-0.07
57824,1.05,0.15,-0.07
57836,1.03,0.15,-0.06
57848,1.03,0.17,-0.06
57861,1.03,0.15,-0.07
57875,1.03,0.17,-0.07
57887,1.03,0.17,-0.06
57903,1.03,0.17,-0.06
57915,1.03,0.15,-0.07
57927,1.03,0.17,-0.06
57939,1.03,0.17,-0.06
57952,1.03,0.17,-0.06
57964,1.03,0.17,-0.04
57976,1.03,0.15,-0.06
57988,1.03,0.15,-0.06
58003,1.03,0.17,-0.07
58016,1.05,0.15,-0.06
58029,1.03,0.17,-0.04
58045,1.03,0.15,-0.06
58058,1.03,0.17,-0.07
58070,1.03,0.17,-0.06
58087,1.03,0.17,-0.06
58100,1.03,0.15,-0.07
58112,1.03,0.17,-0.06
58124,1.05,0.15,-0.07
58136,1.03,0.17,-0.06
58149,1.05,0.17,-0.07
58161,1.03,0.15,-0.06
58173,1.03,0.18,-0.06
58186,1.03,0.15,-0.06
58201,1.03,0.17,-0.07
58213,1.03,0.17,-0.07
58225,1.03,0.15,-0.06
58237,1.05,0.15,-0.04
58250,1.03,0.17,-0.04
58262,1.03,0.15,-0.06
58276,1.05,0.17,-0.07
58292,1.05,0.15,-0.07
58307,1.03,0.17,-0.04
58319,1.03,0.15,-0.07
58332,1.05,0.15,-0.07
58347,1.03,0.17,-0.07
58363,1.03,0.15,-0.06
58378,1.03,0.15,-0.07
58393,1.03,0.15,-0.06
58409,1.03,0.15,-0.06
58422,1.05,0.15,-0.06
58434,1.05,0.17,-0.06
58447,1.03,0.15,-0.07
58459,1.03,0.15,-0.06
58472,1.03,0.15,-0.07
58486,1.03,0.17,-0.06
58499,1.03,0.15,-0.09
58512,1.03,0.15,-0.06
58524,1.03,0.15,-0.07
58537,1.03,0.17,-0.06
58550,1.03,0.14,-0.04
58562,1.03,0.15,-0.09
58575,1.03,0.15,-0.06
58587,1.03,0.15,-0.07
58600,1.03,0.17,-0.06
58612,1.05,0.15,-0.06
58626,1.03,0.17,-0.06
58639,1.03,0.17,-0.09
58654,1.03,0.17,-0.07
58669,1.03,0.17,-0.07
58686,1.03,0.15,-0.07
58699,1.05,0.15,-0.06
58715,1.03,0.15,-0.06
58730,1.03,0.17,-0.07
58745,1.05,0.14,-0.06
58761,1.05,0.17,-0.07
58777,1.03,0.15,-0.07
58790,1.05,0.15,-0.07
58802,1.03,0.18,-0.07
58815,1.03,0.17,-0.07
58827,1.03,0.15,-0.06
58840,1.03,0.17,-0.06
58852,1.03,0.17,-0.06
58865,1.03,0.15,-0.06
58878,1.03,0.15,-0.07
58890,1.03,0.15,-0.06
58905,1.03,0.17,-0.06
58918,1.03,0.15,-0.06
58931,1.03,0.17,-0.07
58947,1.03,0.15,-0.06
58962,1.03,0.17,-0.07
58977,1.03,0.14,-0.06
58993,1.03,0.17,-0.07
59008,1.03,0.15,-0.06
59023,1.03,0.15,-0.06
59038,1.05,0.17,-0.07
59054,1.05,0.15,-0.06
59069,1.05,0.15,-0.06
59084,1.03,0.15,-0.07
59100,1.03,0.15,-0.09
59115,1.03,0.15,-0.06
59132,1.03,0.15,-0.06
59145,1.03,0.17,-0.06
59161,1.03,0.17,-0.07
59174,1.05,0.15,-0.07
59186,1.03,0.17,-0.06
59199,1.03,0.15,-0.06
59212,1.03,0.15,-0.06
59224,1.03,0.15,-0.06
59237,1.03,0.17,-0.06
59250,1.03,0.15,-0.07
59263,1.03,0.15,-0.07
59275,1.05,0.15,-0.04
59288,1.03,0.17,-0.07
59300,1.03,0.15,-0.06
59313,1.03,0.17,-0.06
59327,1.03,0.15,-0.07
59340,1.03,0.15,-0.07
59353,1.03,0.15,-0.07
59365,1.03,0.15,-0.06
59378,1.03,0.17,-0.06
59390,1.03,0.17,-0.07
59403,1.05,0.17,-0.06
59415,1.05,0.15,-0.07
59428,1.05,0.15,-0.06
59440,1.05,0.15,-0.06
59453,1.03,0.15,-0.07
59465,1.05,0.17,-0.06
59478,1.03,0.15,-0.06
59490,1.03,0.15,-0.07
59504,1.05,0.15,-0.04
59518,1.03,0.15,-0.06
59531,1.03,0.17,-0.06
59548,1.03,0.15,-0.06
59560,1.03,0.15,-0.07
59573,1.03,0.15,-0.06
59585,1.03,0.15,-0.07
59598,1.03,0.17,-0.06
59610,1.03,0.15,-0.06
59623,1.03,0.17,-0.07
59636,1.05,0.17,-0.06
59648,1.03,0.15,-0.06
59661,1.03,0.15,-0.07
59673,1.03,0.15,-0.06
59686,1.03,0.15,-0.07
59698,1.05,0.15,-0.06
59713,1.05,0.15,-0.07
59728,1.03,0.15,-0.07
59744,1.03,0.15,-0.07
59759,1.03,0.17,-0.06
59774,1.02,0.15,-0.06
59789,1.03,0.15,-0.06
59805,1.03,0.15,-0.04
59820,1.03,0.17,-0.07
59835,1.03,0.15,-0.06
59852,1.03,0.17,-0.06
59864,1.03,0.15,-0.07
59877,1.03,0.17,-0.06
59890,1.03,0.15,-0.06
59903,1.03,0.15,-0.07
59916,1.03,0.17,-0.06
59930,1.03,0.15,-0.07
59943,1.03,0.15,-0.06
59956,1.03,0.17,-0.06
59968,1.03,0.17,-0.06
59981,1.05,0.15,-0.06
59993,1.03,0.15,-0.06
60006,1.03,0.17,-0.06
60018,1.03,0.15,-0.06
60031,1.05,0.15,-0.06
60043,1.03,0.15,-0.06
60056,1.03,0.15,-0.07
60069,1.05,0.15,-0.07
60081,1.03,0.15,-0.06
60096,1.03,0.15,-0.07
60112,1.03,0.15,-0.06
60127,1.03,0.15,-0.07
60145,1.05,0.17,-0.06
60158,1.03,0.15,-0.06
60173,1.05,0.17,-0.06
60188,1.05,0.15,-0.06
60203,1.03,0.15,-0.06
60219,1.03,0.15,-0.06
60234,1.03,0.14,-0.06
60249,1.03,0.17,-0.06
60265,1.03,0.17,-0.07
60278,1.03,0.17,-0.09
60290,1.03,0.15,-0.06
60302,1.05,0.15,-0.07
60315,1.03,0.15,-0.06
60330,1.05,0.15,-0.07
60345,1.03,0.17,-0.07
60363,1.03,0.15,-0.06
60597,1.03,0.15,-0.06
60610,1.03,0.17,-0.07
60623,1.03,0.15,-0.06
60635,1.05,0.15,-0.09
60648,1.03,0.17,-0.06
60660,1.05,0.15,-0.07
60674,1.05,0.15,-0.06
60687,1.03,0.15,-0.06
60702,1.05,0.15,-0.07
60718,1.03,0.15,-0.07
60733,1.03,0.15,-0.04
60748,1.03,0.15,-0.06
60763,1.03,0.15,-0.06
60779,1.03,0.15,-0.07
60794,1.03,0.17,-0.06
60810,1.03,0.14,-0.06
60827,1.03,0.15,-0.07
60840,1.03,0.15,-0.07
60856,1.03,0.17,-0.06
60869,1.03,0.17,-0.06
60881,1.03,0.17,-0.06
60896,1.03,0.17,-0.06
60911,1.03,0.15,-0.06
60926,1.03,0.17,-0.04
60941,1.03,0.15,-0.06
60956,1.05,0.17,-0.07
60969,1.03,0.15,-0.07
60981,1.03,0.17,-0.06
60993,1.03,0.15,-0.07
61006,1.03,0.15,-0.07
61019,1.05,0.15,-0.06
61033,1.03,0.15,-0.06
61046,1.03,0.15,-0.06
61058,1.05,0.15,-0.07
61071,1.03,0.15,-0.06
61083,1.05,0.17,-0.07
61096,1.05,0.15,-0.07
61108,1.05,0.17,-0.06
61120,1.03,0.15,-0.06
61133,1.03,0.15,-0.07
61145,1.05,0.15,-0.07
61158,1.03,0.17,-0.06
61173,1.03,0.15,-0.07
61188,1.05,0.15,-0.06
61203,1.05,0.15,-0.06
61219,1.03,0.17,-0.06
61234,1.03,0.15,-0.06
61250,1.03,0.15,-0.04
61265,1.03,0.15,-0.06
61280,1.05,0.15,-0.07
61295,1.03,0.15,-0.07
61311,1.03,0.17,-0.07
61324,1.03,0.17,-0.07
61336,1.03,0.15,-0.07
61349,1.03,0.17,-0.07
61361,1.03,0.17,-0.06
61376,1.03,0.15,-0.06
61391,1.03,0.15,-0.06
61407,1.03,0.15,-0.06
61422,1.05,0.17,-0.06
61437,1.03,0.15,-0.07
61454,1.03,0.17,-0.07
61467,1.03,0.17,-0.07
61479,1.03,0.15,-0.07
61492,1.03,0.15,-0.06
61504,1.05,0.17,-0.07
61516,1.05,0.15,-0.07
61529,1.03,0.15,-0.07
61541,1.05,0.17,-0.07
61554,1.03,0.15,-0.06
61566,1.03,0.15,-0.06
61578,1.03,0.17,-0.06
61592,1.03,0.15,-0.06
61605,1.03,0.15,-0.07
61618,1.05,0.17,-0.06
61633,1.05,0.17,-0.07
61650,1.03,0.15,-0.06
61663,1.03,0.15,-0.07
61679,1.03,0.15,-0.07
61694,1.03,0.17,-0.07
61709,1.03,0.17,-0.07
61725,1.05,0.15,-0.07
61740,1.05,0.15,-0.04
61755,1.03,0.15,-0.07
61771,1.05,0.15,-0.07
61786,1.03,0.15,-0.06
61801,1.03,0.15,-0.06
61817,1.05,0.15,-0.06
61832,1.03,0.17,-0.06
61847,1.03,0.15,-0.06
61862,1.03,0.15,-0.07
61878,1.05,0.17,-0.06
61895,1.05,0.15,-0.07
61908,1.05,0.15,-0.07
61923,1.03,0.15,-0.07
61940,1.03,0.15,-0.06
61952,1.03,0.15,-0.07
61965,1.03,0.17,-0.07
61977,1.03,0.17,-0.06
61991,1.03,0.15,-0.07
62003,1.03,0.15,-0.07
62016,1.03,0.17,-0.07
62028,1.03,0.15,-0.07
62041,1.03,0.17,-0.04
62054,1.05,0.15,-0.09
62066,1.03,0.17,-0.06
62079,1.05,0.17,-0.04
62093,1.03,0.15,-0.07
62106,1.03,0.17,-0.07
62118,1.05,0.15,-0.06
62131,1.03,0.17,-0.07
62144,1.05,0.17,-0.06
62156,1.05,0.15,-0.07
62169,1.03,0.15,-0.06
62181,1.03,0.15,-0.07
62194,1.05,0.17,-0.06
62206,1.03,0.15,-0.07
62219,1.03,0.17,-0.06
62232,1.03,0.17,-0.07
62245,1.03,0.17,-0.06
62258,1.05,0.15,-0.07
62270,1.03,0.17,-0.06
62285,1.03,0.15,-0.07
62300,1.05,0.15,-0.09
62316,1.03,0.15,-0.07
62331,1.05,0.15,-0.06
62347,1.05,0.17,-0.06
62360,1.03,0.17,-0.04
62372,1.03,0.17,-0.06
62385,1.03,0.15,-0.07
62398,1.03,0.15,-0.07
62410,1.05,0.15,-0.09
62423,1.03,0.15,-0.06
62435,1.03,0.17,-0.06
62448,1.05,0.15,-0.04
62460,1.05,0.15,-0.07
62473,1.03,0.17,-0.04
62487,1.03,0.15,-0.07
62500,1.03,0.15,-0.06
62513,1.03,0.15,-0.06
62526,1.03,0.15,-0.04
62539,1.03,0.17,-0.06
62551,1.03,0.17,-0.06
62564,1.05,0.15,-0.06
62577,1.02,0.17,-0.06
62589,1.03,0.15,-0.06
62602,1.03,0.15,-0.07
62614,1.05,0.15,-0.06
62627,1.03,0.15,-0.07
62639,1.03,0.15,-0.07
62652,1.03,0.15,-0.06
62664,1.03,0.17,-0.07
62677,1.03,0.15,-0.07
62693,1.03,0.15,-0.07
62708,1.03,0.17,-0.06
62723,1.03,0.17,-0.06
62739,1.03,0.17,-0.07
62754,1.03,0.15,-0.07
62769,1.03,0.15,-0.07
62785,1.05,0.15,-0.07
62800,1.03,0.15,-0.06
62815,1.05,0.15,-0.09
62831,1.03,0.17,-0.07
62844,1.03,0.15,-0.04
62856,1.03,0.17,-0.07
62869,1.03,0.17,-0.06
62881,1.03,0.15,-0.06
62896,1.05,0.17,-0.07
62914,1.03,0.15,-0.06
62926,1.05,0.15,-0.07
62938,1.03,0.15,-0.07
62951,1.03,0.15,-0.07
62963,1.05,0.15,-0.07
62976,1.03,0.17,-0.07
62988,1.05,0.17,-0.07
63001,1.05,0.15,-0.06
63013,1.03,0.15,-0.06
63025,1.03,0.15,-0.06
63038,1.03,0.15,-0.07
63050,1.03,0.15,-0.06
63064,1.03,0.17,-0.06
63076,1.03,0.17,-0.06
63088,1.05,0.15,-0.06
63103,1.05,0.15,-0.07
63115,1.03,0.15,-0.06
63131,1.03,0.17,-0.07
63144,1.03,0.15,-0.06
63156,1.03,0.17,-0.07
63169,1.03,0.15,-0.07
63181,1.03,0.17,-0.07
63193,1.03,0.15,-0.06
63206,1.03,0.17,-0.06
63218,1.03,0.15,-0.04
63231,1.03,0.17,-0.04
63243,1.03,0.17,-0.06
63255,1.03,0.15,-0.07
63268,1.05,0.15,-0.07
63283,1.03,0.15,-0.07
63300,1.03,0.17,-0.04
63313,1.03,0.17,-0.06
63325,1.03,0.17,-0.04
63338,1.05,0.15,-0.06
63350,1.05,0.15,-0.04
63362,1.05,0.17,-0.06
63375,1.05,0.15,-0.07
63387,1.03,0.15,-0.06
63400,1.03,0.17,-0.07
63414,1.03,0.15,-0.04
63429,1.03,0.17,-0.06
63445,1.03,0.17,-0.07
63460,1.03,0.17,-0.09
63475,1.03,0.15,-0.06
63491,1.05,0.17,-0.06
63508,1.03,0.17,-0.06
63521,1.03,0.15,-0.06
63536,1.05,0.15,-0.06
63552,1.05,0.15,-0.06
63567,1.03,0.15,-0.07
63582,1.03,0.15,-0.07
63598,1.03,0.17,-0.06
63613,1.03,0.15,-0.07
63628,1.03,0.15,-0.07
63644,1.03,0.17,-0.06
63659,1.05,0.17,-0.06
63674,1.05,0.15,-0.06
63690,1.03,0.15,-0.07
63705,1.05,0.15,-0.06
63720,1.03,0.15,-0.07
63737,1.03,0.15,-0.07
63751,1.03,0.15,-0.07
63764,1.03,0.17,-0.06
63777,1.03,0.15,-0.07
63789,1.03,0.17,-0.06
63802,1.03,0.17,-0.06
63815,1.05,0.17,-0.07
63828,1.05,0.15,-0.07
63840,1.03,0.15,-0.07
63852,1.03,0.15,-0.06
63865,1.03,0.15,-0.04
63877,1.03,0.15,-0.06
63890,1.03,0.15,-0.06
63902,1.03,0.15,-0.06
63914,1.03,0.15,-0.07
63929,1.03,0.17,-0.07
63942,1.03,0.17,-0.07
63954,1.03,0.15,-0.07
63967,1.05,0.15,-0.06
63979,1.05,0.17,-0.06
63992,1.02,0.15,-0.07
64007,1.03,0.15,-0.07
64173,1.03,0.17,-0.07
64299,1.03,0.17,-0.06
64312,1.03,0.17,-0.06
64324,1.05,0.15,-0.06
64337,1.03,0.15,-0.06
64350,1.03,0.15,-0.07
64362,1.03,0.17,-0.06
64375,1.03,0.17,-0.06
64387,1.03,0.15,-0.04
64400,1.03,0.15,-0.07
64412,1.03,0.17,-0.06
64426,1.03,0.15,-0.06
64439,1.05,0.17,-0.07
64451,1.05,0.15,-0.06
64464,1.03,0.14,-0.07
64477,1.03,0.17,-0.06
64492,1.03,0.17,-0.06
64505,1.03,0.15,-0.06
64517,1.03,0.17,-0.06
64530,1.03,0.17,-0.06
64545,1.05,0.15,-0.07
64560,1.03,0.17,-0.06
64575,1.03,0.15,-0.06
64590,1.03,0.15,-0.06
64606,1.03,0.15,-0.06
64619,1.02,0.15,-0.07
64631,1.03,0.15,-0.06
64644,1.03,0.15,-0.06
64656,1.03,0.15,-0.07
64671,1.03,0.17,-0.06
64686,1.03,0.15,-0.06
64703,1.03,0.17,-0.07
64716,1.03,0.17,-0.07
64729,1.03,0.15,-0.06
64741,1.05,0.15,-0.07
64753,1.03,0.17,-0.07
64766,1.05,0.15,-0.06
64778,1.03,0.15,-0.06
64792,1.03,0.15,-0.06
64807,1.03,0.15,-0.07
64822,1.03,0.15,-0.06
64838,1.05,0.17,-0.06
64853,1.05,0.15,-0.06
64868,1.03,0.15,-0.04
64884,1.03,0.15,-0.06
64899,1.05,0.15,-0.06
65043,1.03,0.15,-0.07
65231,1.03,0.17,-0.06
65244,1.03,0.15,-0.06
65257,1.03,0.15,-0.07
65269,1.03,0.15,-0.07
65282,1.03,0.17,-0.04
65294,1.03,0.15,-0.07
65307,1.03,0.17,-0.07
65320,1.03,0.15,-0.06
65332,1.03,0.17,-0.07
65345,1.03,0.15,-0.06
65357,1.05,0.15,-0.07
65370,1.03,0.17,-0.07
65382,1.03,0.17,-0.04
65395,1.03,0.17,-0.04
65407,1.05,0.15,-0.06
65422,1.03,0.14,-0.06
65435,1.03,0.17,-0.04
65447,1.03,0.17,-0.06
65461,1.03,0.17,-0.06
65474,1.03,0.17,-0.06
65486,1.03,0.15,-0.07
65500,1.03,0.15,-0.06
65512,1.05,0.17,-0.06
65525,1.03,0.15,-0.06
65538,1.05,0.15,-0.07
65550,1.03,0.15,-0.06
65563,1.03,0.15,-0.07
65575,1.03,0.15,-0.06
65588,1.03,0.15,-0.07
65600,1.03,0.17,-0.07
65615,1.05,0.17,-0.07
65628,1.03,0.17,-0.07
65640,1.03,0.15,-0.07
65653,1.03,0.15,-0.07
65665,1.03,0.15,-0.06
65678,1.05,0.15,-0.06
65691,1.03,0.17,-0.07
65703,1.03,0.17,-0.06
65716,1.05,0.15,-0.06
65728,1.03,0.17,-0.06
65741,1.03,0.17,-0.07
65753,1.03,0.15,-0.06
65766,1.03,0.15,-0.09
65779,1.05,0.15,-0.06
65792,1.05,0.15,-0.07
65810,1.03,0.17,-0.07
65823,1.05,0.15,-0.04
65836,1.03,0.17,-0.06
65848,1.03,0.17,-0.06
65860,1.05,0.15,-0.06
65873,1.03,0.17,-0.07
65885,1.03,0.15,-0.06
65898,1.03,0.15,-0.06
65913,1.03,0.17,-0.07
65928,1.03,0.15,-0.06
65943,1.03,0.15,-0.06
65958,1.03,0.17,-0.06
65973,1.03,0.15,-0.09
65989,1.03,0.15,-0.06
66004,1.03,0.15,-0.06
66019,1.03,0.15,-0.06
66036,1.03,0.15,-0.06
66049,1.03,0.15,-0.06
66061,1.05,0.15,-0.06
66074,1.03,0.15,-0.07
66086,1.03,0.15,-0.07
66100,1.03,0.15,-0.04
66115,1.03,0.17,-0.07
66130,1.03,0.15,-0.06
66145,1.03,0.15,-0.06
66160,1.02,0.17,-0.07
66175,1.05,0.15,-0.06
66192,1.03,0.15,-0.06
66204,1.03,0.15,-0.07
66216,1.03,0.15,-0.06
66229,1.05,0.15,-0.06
66243,1.03,0.15,-0.07
66256,1.03,0.17,-0.06
66271,1.03,0.15,-0.07
66286,1.05,0.17,-0.07
66301,1.03,0.17,-0.06
66317,1.03,0.17,-0.09
66332,1.03,0.15,-0.06
66347,1.03,0.15,-0.06
66362,1.03,0.15,-0.06
66377,1.03,0.15,-0.06
66392,1.05,0.15,-0.06
66408,1.03,0.15,-0.07
66424,1.03,0.17,-0.06
66436,1.05,0.17,-0.07
66449,1.03,0.15,-0.06
66463,1.03,0.17,-0.06
66479,1.03,0.17,-0.07
66494,1.03,0.17,-0.07
66510,1.03,0.17,-0.06
66525,1.03,0.17,-0.07
66540,1.03,0.15,-0.04
66555,1.05,0.17,-0.06
66572,1.03,0.15,-0.06
66584,1.03,0.17,-0.06
66597,1.03,0.15,-0.07
66609,1.03,0.15,-0.07
66622,1.03,0.15,-0.07
66635,1.03,0.17,-0.07
66647,1.03,0.15,-0.06
66660,1.03,0.15,-0.07
66672,1.03,0.15,-0.07
66687,1.03,0.15,-0.06
66700,1.03,0.15,-0.06
66712,1.05,0.15,-0.09
66726,1.03,0.17,-0.07
66741,1.03,0.17,-0.06
66757,1.03,0.15,-0.07
66772,1.03,0.15,-0.07
66787,1.03,0.17,-0.06
66803,1.05,0.15,-0.06
66818,1.03,0.15,-0.06
66833,1.03,0.15,-0.06
66849,1.03,0.15,-0.06
66864,1.05,0.15,-0.06
66879,1.05,0.15,-0.06
66895,1.03,0.15,-0.06
66912,1.03,0.15,-0.09
66925,1.03,0.15,-0.06
66937,1.03,0.17,-0.07
66951,1.03,0.17,-0.07
66963,1.03,0.15,-0.06
66976,1.03,0.15,-0.06
66988,1.02,0.17,-0.06
67001,1.05,0.15,-0.06
67014,1.05,0.15,-0.06
67026,1.03,0.17,-0.07
67040,1.03,0.15,-0.07
67052,1.05,0.15,-0.04
67065,1.03,0.15,-0.06
67077,1.03,0.15,-0.06
67090,1.03,0.15,-0.04
67104,1.03,0.15,-0.06
67117,1.03,0.17,-0.06
67130,1.03,0.15,-0.06
67142,1.05,0.17,-0.07
67155,1.03,0.15,-0.06
67167,1.05,0.15,-0.06
67180,1.03,0.17,-0.09
67192,1.03,0.15,-0.07
67205,1.03,0.17,-0.04
67217,1.03,0.15,-0.07
67230,1.05,0.17,-0.06
67242,1.03,0.15,-0.06
67255,1.05,0.15,-0.06
67268,1.03,0.17,-0.06
67280,1.03,0.17,-0.07
67295,1.03,0.15,-0.07
67308,1.03,0.15,-0.07
67321,1.03,0.17,-0.06
67334,1.03,0.17,-0.09
67346,1.03,0.15,-0.06
67361,1.03,0.15,-0.04
67377,1.03,0.17,-0.04
67392,1.03,0.15,-0.10
67407,1.03,0.17,-0.07
67422,1.03,0.17,-0.06
67437,1.05,0.17,-0.06
67452,1.03,0.15,-0.06
67468,1.03,0.15,-0.07
67483,1.05,0.15,-0.07
67498,1.03,0.17,-0.07
67515,1.03,0.15,-0.07
67528,1.03,0.15,-0.06
67540,1.03,0.15,-0.07
67553,1.03,0.15,-0.04
67565,1.03,0.17,-0.06
67577,1.03,0.17,-0.06
67590,1.05,0.15,-0.06
67602,1.03,0.15,-0.06
67615,1.03,0.15,-0.06
67627,1.03,0.17,-0.06
67640,1.03,0.15,-0.09
67653,1.03,0.15,-0.07
67666,1.03,0.17,-0.06
67679,1.03,0.15,-0.07
67694,1.03,0.15,-0.07
67709,1.03,0.17,-0.07
67727,1.03,0.17,-0.07
67739,1.03,0.17,-0.07
67751,1.03,0.17,-0.06
67764,1.03,0.15,-0.07
67776,1.03,0.17,-0.07
67789,1.03,0.15,-0.06
67801,1.03,0.15,-0.06
67814,1.05,0.15,-0.06
67826,1.03,0.17,-0.07
67838,1.03,0.17,-0.07
67851,1.03,0.15,-0.07
67863,1.03,0.17,-0.06
67876,1.03,0.15,-0.07
67888,1.03,0.17,-0.07
67901,1.03,0.15,-0.07
67915,1.03,0.15,-0.06
67932,1.05,0.15,-0.06
67944,1.03,0.15,-0.06
67956,1.03,0.15,-0.06
67969,1.03,0.15,-0.06
67982,1.05,0.17,-0.06
67999,1.03,0.17,-0.06
68011,1.03,0.15,-0.07
68025,1.03,0.17,-0.06
68038,1.03,0.15,-0.07
68050,1.03,0.17,-0.07
68066,1.03,0.15,-0.06
68081,1.03,0.17,-0.06
68097,1.03,0.15,-0.06
68113,1.03,0.17,-0.06
68130,1.03,0.17,-0.04
68143,1.03,0.17,-0.07
68159,1.03,0.15,-0.06
68174,1.03,0.17,-0.06
68189,1.03,0.17,-0.07
68205,1.03,0.15,-0.07
68221,1.03,0.15,-0.07
68236,1.03,0.15,-0.07
68253,1.03,0.17,-0.07
68265,1.03,0.15,-0.06
68277,1.03,0.15,-0.07
68290,1.05,0.15,-0.06
68302,1.03,0.15,-0.06
68315,1.05,0.15,-0.09
68327,1.03,0.15,-0.04
68344,1.03,0.15,-0.06
68357,1.03,0.15,-0.07
68369,1.03,0.15,-0.06
68382,1.03,0.17,-0.07
68394,1.03,0.15,-0.09
68408,1.03,0.17,-0.06
68423,1.03,0.15,-0.06
68438,1.03,0.14,-0.07
68453,1.03,0.15,-0.09
68468,1.05,0.17,-0.06
68483,1.05,0.15,-0.07
68499,1.03,0.15,-0.07
68514,1.05,0.17,-0.06
68529,1.03,0.17,-0.06
68544,1.03,0.15,-0.06
68559,1.03,0.17,-0.07
68578,1.03,0.17,-0.06
68590,1.03,0.15,-0.06
68603,1.05,0.15,-0.06
68615,1.03,0.15,-0.06
68630,1.03,0.17,-0.07
68646,1.03,0.15,-0.06
68661,1.05,0.17,-0.07
68676,1.03,0.15,-0.07
68691,1.03,0.15,-0.07
68706,1.03,0.17,-0.07
68722,1.05,0.15,-0.06
68737,1.03,0.17,-0.06
68752,1.03,0.17,-0.09
68767,1.03,0.17,-0.06
68782,1.03,0.15,-0.04
68799,1.03,0.17,-0.07
68813,1.03,0.17,-0.07
68826,1.03,0.17,-0.06
68838,1.05,0.15,-0.04
68853,1.03,0.17,-0.06
68868,1.05,0.17,-0.06
68884,1.03,0.15,-0.06
68900,1.05,0.15,-0.06
68912,1.03,0.17,-0.04
68925,1.03,0.15,-0.06
68937,1.03,0.15,-0.06
68950,1.05,0.17,-0.07
68962,1.03,0.17,-0.06
68975,1.03,0.17,-0.07
68988,1.03,0.15,-0.07
69002,1.03,0.17,-0.06
69015,1.03,0.15,-0.06
69028,1.03,0.15,-0.06
69040,1.05,0.15,-0.06
69053,1.03,0.15,-0.06
69065,1.03,0.17,-0.06
69078,1.03,0.15,-0.04
69090,1.03,0.15,-0.06
69103,1.05,0.15,-0.06
69115,1.03,0.15,-0.06
69128,1.05,0.15,-0.06
69140,1.03,0.15,-0.06
69153,1.03,0.17,-0.07
69167,1.03,0.15,-0.07
69180,1.03,0.17,-0.06
69197,1.03,0.17,-0.07
69210,1.05,0.17,-0.06
69226,1.03,0.15,-0.06
69241,1.03,0.15,-0.07
69256,1.03,0.15,-0.07
69271,1.03,0.15,-0.04
69287,1.05,0.17,-0.10
69302,1.03,0.15,-0.06
69317,1.03,0.17,-0.06
69333,1.03,0.15,-0.07
69348,1.03,0.15,-0.07
69363,1.03,0.15,-0.06
69379,1.03,0.15,-0.06
69394,1.03,0.17,-0.06
69409,1.03,0.17,-0.06
69425,1.03,0.17,-0.06
69442,1.03,0.17,-0.07
69455,1.03,0.17,-0.07
69470,1.03,0.15,-0.06
69486,1.03,0.15,-0.06
69501,1.05,0.15,-0.06
69517,1.05,0.15,-0.06
69530,1.05,0.15,-0.06
69542,1.03,0.17,-0.06
69555,1.03,0.17,-0.07
69568,1.03,0.17,-0.07
69581,1.03,0.17,-0.07
69593,1.03,0.15,-0.04
69606,1.03,0.17,-0.09
69618,1.05,0.15,-0.06
69631,1.05,0.15,-0.04
69646,1.03,0.17,-0.06
69658,1.05,0.15,-0.07
69671,1.05,0.15,-0.06
69684,1.03,0.15,-0.07
69696,1.03,0.17,-0.07
69709,1.03,0.17,-0.06
69721,1.03,0.17,-0.06
69734,1.03,0.17,-0.06
69746,1.03,0.15,-0.06
69759,1.03,0.15,-0.07
69771,1.05,0.15,-0.06
69784,1.03,0.17,-0.07
69796,1.03,0.15,-0.06
69810,1.03,0.15,-0.06
69823,1.03,0.15,-0.07
69840,1.03,0.17,-0.06
69853,1.03,0.17,-0.06
69865,1.03,0.17,-0.07
69878,1.03,0.17,-0.07
69890,1.03,0.15,-0.07
69903,1.05,0.15,-0.04
69919,1.03,0.17,-0.06
69932,1.03,0.15,-0.06
69944,1.05,0.17,-0.06
69957,1.03,0.15,-0.06
69969,1.03,0.15,-0.07
69982,1.03,0.17,-0.06
69994,1.03,0.15,-0.07
70007,1.02,0.17,-0.06
70019,1.03,0.17,-0.04
70034,1.03,0.17,-0.06
70047,1.03,0.17,-0.07
70059,1.03,0.17,-0.07
70072,1.03,0.15,-0.07
70084,1.03,0.15,-0.06
70098,1.03,0.17,-0.04
70111,1.05,0.17,-0.07
70123,1.03,0.15,-0.06
70136,1.03,0.17,-0.07
70148,1.03,0.17,-0.07
70161,1.03,0.15,-0.06
70173,1.03,0.17,-0.06
70186,1.03,0.15,-0.07
70199,1.03,0.15,-0.06
70214,1.03,0.17,-0.06
70231,1.03,0.15,-0.06
70244,1.03,0.15,-0.07
70257,1.03,0.17,-0.06
70270,1.03,0.15,-0.06
70282,1.03,0.17,-0.07
70295,1.03,0.17,-0.06
70310,1.03,0.15,-0.06
70325,1.05,0.17,-0.06
70340,1.03,0.15,-0.07
70355,1.03,0.17,-0.07
70371,1.05,0.15,-0.06
70386,1.05,0.15,-0.07
70402,1.03,0.17,-0.07
70415,1.03,0.15,-0.06
70427,1.03,0.15,-0.07
70441,1.03,0.17,-0.04
70457,1.05,0.17,-0.06
70472,1.03,0.15,-0.07
70487,1.05,0.15,-0.06
70502,1.03,0.17,-0.04
70517,1.03,0.15,-0.07
70533,1.05,0.15,-0.07
70548,1.03,0.17,-0.06
70563,1.03,0.17,-0.06
70578,1.03,0.15,-0.06
70593,1.03,0.17,-0.07
70608,1.03,0.15,-0.06
70624,1.05,0.17,-0.06
70639,1.05,0.17,-0.07
70654,1.05,0.15,-0.07
70670,1.03,0.17,-0.07
70685,1.05,0.15,-0.06
70698,1.03,0.17,-0.06
70710,1.03,0.17,-0.06
70725,1.03,0.15,-0.06
70740,1.05,0.17,-0.06
70752,1.03,0.15,-0.06
70764,1.03,0.17,-0.06
70777,1.03,0.17,-0.07
70789,1.03,0.17,-0.07
70801,1.03,0.17,-0.06
70814,1.03,0.15,-0.06
70826,1.03,0.15,-0.06
70841,1.03,0.17,-0.06
70853,1.03,0.15,-0.07
70865,1.03,0.17,-0.07
70880,1.03,0.15,-0.06
70892,1.05,0.17,-0.06
70904,1.03,0.17,-0.06
70917,1.03,0.17,-0.07
70932,1.03,0.17,-0.06
70947,1.03,0.15,-0.07
70959,1.03,0.15,-0.06
70971,1.03,0.17,-0.06
70984,1.05,0.15,-0.09
70996,1.05,0.15,-0.07
71008,1.03,0.17,-0.06
71022,1.03,0.15,-0.07
71034,1.03,0.15,-0.06
71046,1.03,0.17,-0.07
71059,1.03,0.17,-0.06
71071,1.05,0.15,-0.07
71086,1.03,0.15,-0.07
71098,1.05,0.15,-0.06
71111,1.03,0.15,-0.07
71123,1.03,0.15,-0.07
71136,1.03,0.15,-0.07
71148,1.03,0.17,-0.06
71163,1.03,0.17,-0.07
71178,1.05,0.15,-0.06
71194,1.03,0.15,-0.07
71209,1.03,0.15,-0.06
71224,1.05,0.15,-0.04
71239,1.03,0.15,-0.07
71254,1.05,0.17,-0.07
71269,1.03,0.15,-0.06
71285,1.05,0.17,-0.07
71302,1.03,0.15,-0.06
71314,1.03,0.15,-0.06
71328,1.03,0.15,-0.06
71340,1.03,0.17,-0.06
71356,1.03,0.17,-0.06
71371,1.03,0.15,-0.06
71388,1.05,0.17,-0.07
71400,1.03,0.15,-0.06
71413,1.05,0.15,-0.07
71425,1.03,0.15,-0.07
71438,1.03,0.15,-0.06
71451,1.03,0.17,-0.06
71463,1.03,0.15,-0.04
71593,1.03,0.17,-0.06
71664,1.05,0.15,-0.06
71677,1.05,0.15,-0.06
71689,1.03,0.15,-0.07
71702,1.03,0.17,-0.07
71715,1.03,0.15,-0.07
71728,1.03,0.17,-0.07
71743,1.03,0.17,-0.06
71759,1.03,0.15,-0.04
71774,1.05,0.17,-0.07
71790,1.03,0.15,-0.09
71806,1.03,0.15,-0.07
71819,1.03,0.15,-0.07
71831,1.03,0.15,-0.07
71844,1.03,0.15,-0.06
71857,1.03,0.17,-0.07
71875,1.03,0.17,-0.06
71888,1.03,0.15,-0.06
71900,1.03,0.15,-0.06
71916,1.03,0.17,-0.06
71932,1.03,0.17,-0.04
71945,1.05,0.17,-0.06
71957,1.03,0.15,-0.06
71970,1.03,0.17,-0.04
71982,1.05,0.15,-0.07
71995,1.03,0.15,-0.07
72007,1.05,0.15,-0.04
72020,1.03,0.15,-0.04
72032,1.05,0.17,-0.04
72045,1.05,0.15,-0.06
72057,1.03,0.17,-0.06
72072,1.03,0.15,-0.06
72085,1.05,0.14,-0.09
72097,1.03,0.15,-0.06
72111,1.03,0.15,-0.07
72124,1.03,0.17,-0.07
72136,1.03,0.17,-0.06
72149,1.03,0.17,-0.06
72161,1.05,0.15,-0.06
72174,1.03,0.15,-0.07
72186,1.03,0.15,-0.06
72199,1.03,0.15,-0.06
72211,1.03,0.15,-0.07
72224,1.03,0.15,-0.04
72236,1.03,0.15,-0.06
72249,1.03,0.17,-0.07
72263,1.05,0.15,-0.06
72277,1.03,0.17,-0.07
72292,1.03,0.15,-0.06
72308,1.03,0.17,-0.06
72323,1.03,0.15,-0.06
72338,1.03,0.15,-0.07
72354,1.03,0.17,-0.06
72369,1.03,0.15,-0.07
72384,1.02,0.15,-0.06
72399,1.03,0.15,-0.06
72416,1.03,0.15,-0.06
72428,1.03,0.15,-0.09
72441,1.03,0.15,-0.06
72453,1.05,0.17,-0.07
72466,1.03,0.15,-0.06
72480,1.03,0.17,-0.07
72496,1.03,0.17,-0.07
72511,1.03,0.15,-0.07
72526,1.03,0.17,-0.06
72542,1.03,0.17,-0.07
72557,1.03,0.17,-0.09
72572,1.03,0.15,-0.06
72588,1.03,0.15,-0.07
72603,1.03,0.15,-0.06
72618,1.05,0.17,-0.07
72633,1.03,0.15,-0.06
72649,1.03,0.17,-0.06
72664,1.03,0.15,-0.06
72680,1.03,0.17,-0.07
72693,1.03,0.15,-0.07
72705,1.03,0.15,-0.07
72720,1.03,0.17,-0.06
72734,1.05,0.15,-0.07
72746,1.05,0.15,-0.06
72759,1.03,0.15,-0.06
72772,1.03,0.15,-0.06
72784,1.05,0.15,-0.07
72797,1.03,0.17,-0.06
72809,1.03,0.15,-0.06
72822,1.03,0.17,-0.07
72834,1.03,0.15,-0.04
72847,1.03,0.17,-0.06
72860,1.03,0.17,-0.07
72872,1.03,0.15,-0.07
72885,1.05,0.15,-0.06
72900,1.03,0.15,-0.06
72917,1.03,0.17,-0.06
72930,1.03,0.17,-0.07
72943,1.05,0.15,-0.06
72955,1.03,0.15,-0.06
72971,1.03,0.17,-0.06
72986,1.03,0.15,-0.07
73001,1.05,0.15,-0.04
73017,1.02,0.17,-0.06
73033,1.05,0.15,-0.06
73047,1.03,0.17,-0.06
73059,1.03,0.15,-0.06
73072,1.03,0.15,-0.06
73087,1.03,0.15,-0.04
73102,1.05,0.14,-0.07
73118,1.05,0.15,-0.06
73135,1.03,0.15,-0.07
73148,1.03,0.15,-0.06
73163,1.03,0.15,-0.06
73179,1.03,0.17,-0.06
73194,1.05,0.15,-0.06
73209,1.05,0.15,-0.07
73225,1.03,0.15,-0.07
73240,1.03,0.17,-0.06
73255,1.03,0.15,-0.06
73270,1.03,0.17,-0.06
73286,1.03,0.17,-0.07
73301,1.03,0.17,-0.07
73316,1.03,0.17,-0.06
73332,1.03,0.17,-0.07
73347,1.03,0.15,-0.06
73364,1.03,0.17,-0.07
73378,1.03,0.15,-0.07
73390,1.03,0.15,-0.06
73403,1.03,0.15,-0.04
73418,1.03,0.15,-0.07
73433,1.03,0.15,-0.06
73449,1.05,0.17,-0.07
73462,1.03,0.17,-0.06
73474,1.03,0.15,-0.07
73489,1.03,0.15,-0.07
73501,1.05,0.15,-0.07
73513,1.03,0.15,-0.07
73526,1.03,0.17,-0.06
73538,1.03,0.17,-0.04
73550,1.03,0.15,-0.06
73564,1.03,0.15,-0.06
73580,1.03,0.17,-0.07
73595,1.05,0.15,-0.06
73607,1.03,0.17,-0.04
73619,1.03,0.15,-0.07
73632,1.03,0.15,-0.04
73644,1.03,0.17,-0.07
73656,1.03,0.15,-0.06
73670,1.03,0.15,-0.04
73682,1.03,0.17,-0.06
73694,1.05,0.15,-0.06
73707,1.03,0.17,-0.06
73719,1.03,0.15,-0.06
73731,1.05,0.15,-0.04
73743,1.03,0.17,-0.06
73756,1.05,0.15,-0.07
73773,1.03,0.15,-0.07
73785,1.03,0.15,-0.06
73802,1.05,0.15,-0.06
73814,1.03,0.15,-0.07
73827,1.03,0.17,-0.04
73839,1.03,0.15,-0.06
73851,1.05,0.15,-0.06
73866,1.03,0.15,-0.06
73878,1.05,0.15,-0.06
73891,1.03,0.15,-0.06
73903,1.05,0.17,-0.06
73915,1.03,0.15,-0.06
73927,1.03,0.17,-0.06
73940,1.03,0.17,-0.06
73955,1.03,0.17,-0.06
73968,1.03,0.17,-0.07
73980,1.03,0.17,-0.07
73992,1.05,0.15,-0.06
74005,1.05,0.17,-0.04
74017,1.03,0.17,-0.07
74032,1.03,0.15,-0.07
74048,1.03,0.15,-0.07
74063,1.03,0.15,-0.06
74078,1.03,0.17,-0.07
74093,1.03,0.17,-0.07
74108,1.03,0.17,-0.07
74123,1.03,0.15,-0.07
74139,1.03,0.15,-0.06
74154,1.05,0.17,-0.07
74172,1.02,0.17,-0.07
74185,1.05,0.17,-0.06
74197,1.03,0.15,-0.06
74210,1.03,0.15,-0.06
74223,1.03,0.15,-0.07
74235,1.03,0.15,-0.06
74248,1.03,0.17,-0.06
74261,1.05,0.15,-0.06
74274,1.03,0.15,-0.09
74286,1.03,0.15,-0.06
74299,1.05,0.15,-0.06
74312,1.03,0.15,-0.07
74324,1.03,0.15,-0.07
74337,1.03,0.15,-0.06
74349,1.05,0.15,-0.06
74362,1.03,0.17,-0.07
74376,1.03,0.17,-0.06
74389,1.05,0.15,-0.04
74402,1.03,0.15,-0.06
74414,1.03,0.17,-0.04
74427,1.03,0.15,-0.06
74439,1.03,0.15,-0.06
74452,1.03,0.15,-0.07
74464,1.05,0.15,-0.07
74477,1.03,0.17,-0.07
74490,1.05,0.15,-0.07
74502,1.03,0.15,-0.06
74516,1.05,0.15,-0.07
74528,1.03,0.15,-0.06
74541,1.03,0.17,-0.06
74554,1.03,0.17,-0.04
74569,1.03,0.15,-0.06
74582,1.03,0.15,-0.07
74594,1.03,0.15,-0.06
74607,1.03,0.15,-0.06
74619,1.03,0.17,-0.07
74632,1.03,0.17,-0.06
74645,1.05,0.15,-0.07
74657,1.03,0.15,-0.06
74670,1.03,0.17,-0.06
74682,1.03,0.17,-0.06
74695,1.03,0.17,-0.06
74707,1.03,0.15,-0.04
74720,1.05,0.15,-0.06
74732,1.03,0.17,-0.04
74745,1.03,0.15,-0.04
74759,1.03,0.15,-0.06
74772,1.05,0.17,-0.09
74785,1.05,0.15,-0.06
74797,1.05,0.17,-0.06
74810,1.03,0.15,-0.06
74823,1.03,0.14,-0.06
74836,1.03,0.15,-0.07
74852,1.05,0.17,-0.06
74865,1.05,0.15,-0.07
74877,1.03,0.15,-0.06
74890,1.03,0.17,-0.06
74902,1.03,0.15,-0.06
74915,1.03,0.15,-0.06
74928,1.03,0.17,-0.06
74940,1.03,0.15,-0.07
74954,1.05,0.15,-0.06
74967,1.03,0.15,-0.07
74980,1.03,0.17,-0.07
74992,1.05,0.15,-0.06
75005,1.05,0.17,-0.06
75018,1.03,0.15,-0.04
75030,1.03,0.17,-0.04
75048,1.03,0.17,-0.06
75257,1.03,0.15,-0.07
75270,1.03,0.15,-0.07
75283,1.03,0.15,-0.09
75298,1.03,0.15,-0.04
75313,1.05,0.17,-0.07
75330,1.03,0.15,-0.07
75343,1.03,0.17,-0.06
75356,1.03,0.17,-0.04
75368,1.03,0.17,-0.07
75381,1.03,0.17,-0.04
75394,1.03,0.17,-0.06
75410,1.03,0.15,-0.06
75423,1.03,0.17,-0.06
75435,1.03,0.15,-0.04
75448,1.03,0.17,-0.06
75463,1.05,0.17,-0.06
75476,1.03,0.17,-0.07
75489,1.05,0.15,-0.06
75501,1.03,0.17,-0.09
75514,1.03,0.15,-0.07
75526,1.03,0.15,-0.07
75539,1.03,0.17,-0.07
75551,1.03,0.15,-0.06
75564,1.03,0.15,-0.04
75576,1.05,0.15,-0.06
75589,1.03,0.15,-0.06
75601,1.03,0.17,-0.06
75615,1.03,0.15,-0.06
75630,1.03,0.17,-0.06
75646,1.05,0.17,-0.07
75663,1.03,0.15,-0.06
75676,1.03,0.15,-0.09
75691,1.03,0.15,-0.09
75706,1.05,0.17,-0.07
75722,1.05,0.15,-0.06
75737,1.03,0.17,-0.07
75752,1.05,0.15,-0.06
75768,1.05,0.15,-0.07
75784,1.03,0.15,-0.07
75797,1.05,0.17,-0.06
75809,1.03,0.17,-0.06
75822,1.03,0.15,-0.04
75834,1.03,0.15,-0.06
75847,1.03,0.15,-0.09
75859,1.03,0.15,-0.06
75874,1.03,0.15,-0.07
75889,1.03,0.17,-0.06
75905,1.03,0.15,-0.07
75920,1.03,0.15,-0.06
75935,1.03,0.17,-0.07
75952,1.05,0.15,-0.06
75964,1.03,0.15,-0.06
75976,1.05,0.15,-0.07
75989,1.03,0.15,-0.06
76001,1.03,0.15,-0.06
76016,1.05,0.15,-0.07
76032,1.03,0.15,-0.07
76047,1.03,0.17,-0.04
76062,1.05,0.15,-0.06
76077,1.03,0.17,-0.04
76092,1.03,0.15,-0.06
76110,1.03,0.17,-0.06
76122,1.05,0.15,-0.06
76135,1.05,0.17,-0.06
76147,1.03,0.15,-0.07
76161,1.03,0.15,-0.07
76173,1.05,0.17,-0.07
76188,1.03,0.15,-0.07
76203,1.03,0.15,-0.06
76219,1.05,0.15,-0.06
76234,1.05,0.17,-0.07
76249,1.03,0.15,-0.07
76265,1.03,0.15,-0.06
76278,1.03,0.15,-0.07
76290,1.05,0.15,-0.07
76303,1.03,0.17,-0.06
76317,1.03,0.15,-0.07
76330,1.03,0.17,-0.07
76345,1.03,0.17,-0.07
76360,1.03,0.15,-0.06
76375,1.05,0.15,-0.06
76390,1.03,0.15,-0.06
76406,1.03,0.17,-0.06
76421,1.03,0.17,-0.04
76436,1.03,0.17,-0.06
76451,1.03,0.17,-0.06
76466,1.05,0.15,-0.09
76481,1.05,0.15,-0.07
76497,1.03,0.17,-0.07
76512,1.03,0.15,-0.04
76527,1.05,0.15,-0.04
76544,1.03,0.15,-0.04
76558,1.03,0.15,-0.04
76573,1.03,0.15,-0.07
76586,1.03,0.17,-0.06
76598,1.03,0.17,-0.07
76614,1.03,0.15,-0.06
76629,1.03,0.15,-0.04
76644,1.03,0.15,-0.06
76659,1.03,0.17,-0.06
76674,1.05,0.15,-0.06
76689,1.03,0.17,-0.07
76705,1.03,0.15,-0.06
76720,1.03,0.17,-0.07
76735,1.03,0.17,-0.06
76750,1.03,0.15,-0.07
76767,1.03,0.17,-0.07
76780,1.03,0.17,-0.06
76792,1.05,0.15,-0.06
76805,1.03,0.17,-0.04
76817,1.03,0.17,-0.04
76830,1.03,0.17,-0.06
76842,1.03,0.17,-0.07
76855,1.03,0.15,-0.06
76867,1.05,0.15,-0.06
76879,1.03,0.15,-0.06
76893,1.03,0.15,-0.07
76905,1.03,0.15,-0.06
76918,1.05,0.15,-0.06
76931,1.03,0.15,-0.07
76947,1.05,0.17,-0.04
76962,1.05,0.15,-0.06
76979,1.05,0.17,-0.06
76992,1.03,0.15,-0.06
