Time,GyroX,GyroY,GyroZ
1950,-44,129,-111
1962,-64,77,-97
1975,-28,41,-142
1986,5,73,-146
1998,47,140,-52
2009,7,97,-49
2020,36,81,-124
2031,2,106,-108
2043,-17,95,-93
2054,57,122,-99
2065,64,159,-93
2076,108,66,-23
2087,118,26,-36
2101,159,241,-29
2113,-21,229,-76
2127,-70,151,-101
2138,-17,119,-121
2154,-26,148,-97
2168,-37,87,-120
2179,-83,59,-109
2193,-40,54,-126
2204,27,27,-133
2219,-24,125,-60
2230,48,79,-69
2242,-45,62,-93
2253,3,101,-120
2265,-53,112,-107
2279,-29,58,-77
2290,57,95,-70
2304,-1,224,-61
2316,61,203,-22
2330,-16,164,-85
2341,118,239,-54
2355,-101,300,-43
2366,-63,149,-72
2381,27,40,-68
2392,-2,180,-97
2406,-22,308,-23
2418,-25,219,-24
2432,-4,77,-111
2444,73,205,-96
2458,-20,316,-67
2469,-6,290,-23
2484,63,103,-86
2495,55,18,-125
2511,-59,227,-116
2525,46,164,-73
2536,45,138,-47
2550,80,66,-107
2561,4,155,-105
2576,2,156,-66
2587,33,199,-55
2601,-15,184,-53
2613,20,114,-101
2624,-41,87,-112
2636,-51,121,-70
2647,-65,126,-72
2662,-65,94,-102
2677,-115,54,-61
2689,-130,1,-124
2703,-119,-3,-164
2714,-124,-45,-102
2726,-138,-42,-92
2739,-130,-56,-126
2754,-14,9,-145
2765,50,-13,-78
2779,88,175,-7
2791,165,270,-37
2806,78,307,-36
2821,66,198,-105
2832,-31,174,-84
2846,-69,110,-142
2858,-186,12,-142
2872,-174,-95,-191
2884,-291,-19,-142
2898,72,-100,1
2909,56,46,46
2924,120,137,12
2937,-36,205,-26
2948,-74,204,-52
2960,-49,207,-92
2974,-182,230,-102
2986,-61,184,-116
3000,-92,176,-30
3012,9,377,94
3026,-62,533,149
3041,-135,434,-20
3053,-124,385,-19
3067,-110,339,41
3078,-5,268,-29
3093,2,333,13
3105,45,275,0
3117,-18,282,-92
3130,0,195,-140
3141,130,213,-63
3153,54,257,-88
3164,125,354,-18
3176,255,405,-7
3187,126,460,9
3199,186,462,27
3214,170,415,-29
3230,153,422,-15
3244,189,365,-61
3256,53,347,-82
3270,122,280,-76
3282,36,276,-40
3293,104,240,-54
3305,95,268,-47
3317,-11,215,-73
3330,49,172,-81
3342,45,262,-66
3354,115,285,-41
3365,147,305,-38
3377,163,330,-34
3389,149,355,-45
3401,161,319,-12
3414,87,328,-27
3426,103,298,-50
3438,71,266,-41
3449,25,235,-78
3460,68,189,-20
3472,-8,158,-54
3486,29,90,-75
3498,-24,35,-81
3511,-44,51,-127
3523,16,84,-124
3537,-38,52,-136
3548,-11,-11,-176
3563,-30,31,-140
3574,70,71,-120
3588,-79,71,-76
3600,-2,13,-148
3614,-61,55,-148
3626,-82,41,-161
3640,71,-458,-558
3651,-75,45,-158
3666,-93,54,-105
3677,62,39,-94
3693,78,177,-10
3709,94,199,-90
3720,36,275,-57
3732,-1,185,-107
3743,65,156,-86
3757,42,196,-54
3769,51,143,-27
3781,60,79,-54
3793,5,189,-104
3804,-52,233,-130
3816,-37,194,-17
3827,-18,83,-99
3839,-48,-22,-141
3853,-43,52,-94
3865,-109,101,-108
3879,-116,-8,-121
3892,-38,-147,-129
3904,-90,-5,-105
3915,-135,71,-84
3930,-136,-248,-112
3941,-200,-199,-187
3953,-288,-266,-212
3964,-284,-305,-200
3977,-166,-242,-96
3988,-134,-163,-56
4000,-46,-127,-54
4011,-115,-66,-119
4025,-49,77,-111
4036,-4,191,-77
4051,50,264,-44
4062,-13,213,-64
4076,-55,147,-82
4089,-34,110,-98
4101,-138,78,-88
4113,-96,114,-65
4124,-104,80,-70
4136,-109,58,-117
4147,-60,46,-101
4161,25,85,-66
4173,-13,173,-64
4187,10,222,-52
4198,-60,132,-86
4212,-3,65,-128
4224,53,134,-64
4238,10,143,-38
4249,69,43,-96
4264,-37,115,-117
4278,-13,157,-102
4289,-105,136,-67
4300,-108,13,-120
4312,-2,-71,-109
4323,-139,74,-137
4334,-144,154,-138
4346,-17,151,-34
4357,22,96,-100
4369,76,153,-113
4380,12,205,-68
4394,-32,155,-92
4405,-15,111,-116
4420,-50,87,-76
4431,-9,27,-113
4445,-16,11,-131
4458,-21,87,-107
4471,-39,136,-77
4482,-27,124,-60
4496,-51,74,-107
4507,-75,87,-134
4521,-25,71,-60
4532,28,110,-82
4546,30,212,-46
4559,-62,159,-42
4570,24,123,-78
4581,24,188,-77
4593,34,216,-53
4607,-64,105,-80
4618,-49,18,-127
4632,-50,83,-121
4645,-12,123,-93
4657,-113,92,-94
4668,77,56,-106
4680,-8,134,-83
4691,-88,154,-91
4702,-8,56,-107
4714,-61,82,-111
4728,-28,55,-105
4739,-14,39,-104
4753,-57,52,-90
4765,-51,82,-127
4779,9,154,-55
4790,-95,119,-108
4804,9,52,-113
4816,12,69,-83
4828,-77,78,-157
4842,-46,76,-104
4854,-51,94,-111
4865,-29,35,-147
4876,-23,73,-101
4888,-64,86,-62
4899,8,49,-85
4911,-36,95,-103
4925,-81,71,-107
4936,-64,51,-78
4950,-96,83,-126
4962,-23,46,-117
4976,-76,8,-122
4987,-25,-43,-131
5001,-56,-1,-133
5013,-17,55,-115
5029,-35,36,-84
5040,17,94,-102
5051,-3,137,-129
5063,-43,160,-86
5074,-38,126,-81
5085,-62,30,-113
5097,-1,58,-108
5108,-31,172,-97
5123,-66,140,-91
5137,78,75,-90
5149,20,149,-105
5163,-16,215,-93
5174,-34,150,-82
5187,7,91,-117
5198,45,38,-83
5212,-14,117,-88
5223,-53,100,-85
5235,-43,4,-131
5249,15,43,-122
5260,-121,122,-101
5275,-80,17,-90
5286,-84,-39,-141
5300,-42,70,-99
5312,51,180,-39
5326,29,184,-66
5338,100,180,-93
5352,-21,193,-53
5363,-54,141,-87
5378,-37,88,-110
5389,3,98,-64
5403,-70,73,-82
5417,-69,93,-134
5429,-14,69,-132
5444,-50,116,-94
5455,-30,116,-96
5469,-5,65,-101
5481,-29,124,-104
5495,-31,115,-105
5507,-27,133,-91
5521,11,168,-75
5532,-12,186,-48
5547,3,137,-86
5558,-56,184,-108
5572,-37,188,-79
5584,-21,130,-94
5598,-10,111,-84
5611,12,120,-101
5623,-31,96,-93
5634,-84,119,-137
5649,-51,75,-93
5660,-31,92,-117
5674,17,132,-65
5686,-12,102,-61
5700,-21,121,-105
5712,-16,136,-78
5727,-32,121,-112
5741,-23,104,-89
5753,3,79,-76
5767,-32,89,-106
5779,-5,104,-68
5793,-16,112,-82
5806,19,104,-101
5818,4,141,-70
5829,-31,92,-89
5844,14,67,-96
5855,-79,84,-121
5869,-56,50,-102
5881,-73,5,-96
5895,-24,60,-104
5907,-9,113,-95
5921,-68,47,-95
5932,-26,31,-110
5945,-56,66,-120
5957,-250,144,-71
5968,-43,88,-86
5980,-12,96,-96
5993,-49,101,-113
6004,-111,137,-115
6017,-45,80,-75
6028,26,54,-95
6040,32,139,-84
6051,-82,180,-76
6063,-47,147,-71
6074,-36,48,-104
6086,-8,75,-112
6097,-47,162,-85
6112,-80,144,-86
6123,-10,77,-121
6137,18,48,-95
6149,-41,99,-123
6163,-110,150,-76
6175,-36,89,-104
6188,-21,18,-118
6200,-5,101,-66
6214,9,166,-103
6225,-69,196,-116
6240,-50,-26,-225
6251,30,-56,-198
6265,-135,88,-97
6277,58,25,-117
6289,-73,73,-148
6302,128,-503,-481
6316,-68,11,-124
6327,115,18,-90
6342,219,79,-72
6353,-226,229,-45
6372,-54,137,-162
6386,-16,73,-134
6397,-70,-99,-186
6408,-3,69,-99
6423,-9,116,-63
6434,-9,137,-86
6446,11,160,-104
6457,-5,168,-90
6469,17,175,-57
6483,-73,122,-115
6495,-68,85,-130
6506,-36,58,-108
6518,2,104,-91
6529,-12,146,-64
6544,-30,137,-79
6555,-49,123,-109
6571,-50,58,-127
6583,-69,46,-135
6594,-76,49,-128
6607,-31,43,-102
6618,20,105,-93
6629,-6,153,-79
6641,14,153,-53
6653,15,180,-80
6664,233,136,-118
6676,-24,134,-84
6690,-45,124,-112
6701,1,108,-88
6716,-84,120,-89
6727,-50,121,-95
6741,-41,26,-150
6754,185,-545,-408
6766,202,-802,-403
6777,136,9,-63
6788,81,-16,-123
6800,-84,156,-66
6811,31,87,-93
6823,-11,62,-86
6837,-119,86,-102
6848,-83,27,-127
6862,-30,59,-79
6874,2,99,-58
6889,-18,108,-96
6903,-65,120,-105
6915,-58,89,-108
6929,-64,60,-122
6940,-21,11,-93
6954,-33,36,-95
6965,-44,47,-104
6980,-62,64,-121
6991,-29,75,-89
7005,-10,90,-103
7021,-72,54,-105
7032,-51,55,-109
7044,-71,67,-109
7055,-40,53,-132
7067,-40,31,-108
7081,-40,29,-110
7093,-92,49,-132
7107,-55,14,-129
7119,-78,40,-115
7133,-76,47,-120
7146,-19,35,-125
7158,-68,88,-124
7169,-2,19,-129
7184,-69,26,-94
7199,-37,46,-76
7210,-30,12,-66
7225,-87,-61,-195
7236,-43,13,-72
7250,-141,26,-139
7262,-28,7,-89
7273,-82,-24,-143
7285,-37,-70,-127
7297,-59,-41,-136
7311,-35,-90,-92
7322,-65,-82,-162
7338,-61,-130,-168
7350,-72,-146,-156
7361,-77,-162,-169
7374,-97,-215,-156
7385,-111,-277,-184
7397,-183,-374,-222
7408,-201,-566,-265
7422,-227,-895,-355
7434,-284,-1116,-419
7448,-487,-1336,-524
7459,-460,-1433,-539
7474,-603,-1654,-577
7488,-988,-1947,-708
7500,-535,-2233,-717
7514,-562,-2415,-614
7527,-517,-2618,-684
7538,-593,-3087,-879
7550,-701,-3593,-979
7561,-695,-4200,-1241
7573,-429,-4557,-1241
7584,-494,-4069,-1063
7595,-760,-3334,-756
7609,947,-3429,-941
7621,705,-3867,-1110
7635,-445,-2536,-567
7646,74,-2619,-683
7661,-70,-2664,-809
7676,-244,-2517,-621
7687,-612,-2414,-745
7701,-685,-2430,-824
7713,-622,-2279,-650
7726,-379,-2626,-793
7737,-426,-2329,-694
7748,-874,-2370,-688
7760,-618,-2112,-599
7772,-267,-2024,-594
7786,-527,-1855,-526
7798,-679,-1619,-477
7812,-680,-1596,-496
7823,-658,-1244,-417
7837,-452,-909,-323
7849,-803,-826,-392
7863,-629,-792,-427
7874,-538,-391,-278
7888,-440,-137,-256
7900,-281,-105,-261
7913,-184,-89,-272
7924,-212,82,-204
7936,-204,-235,-328
7947,-76,-300,-342
7958,12,-164,-239
7971,110,-137,-266
7982,-4,-315,-356
7994,-47,-372,-384
8005,-87,-219,-344
8017,33,-77,-214
8028,64,23,-211
8040,27,2,-259
8055,-114,112,-236
8070,-48,211,-192
8081,-86,261,-191
8094,-7,206,-238
8106,-71,288,-154
8120,-97,441,-144
8132,-14,402,-143
8146,45,429,-117
8158,10,503,-107
8172,-64,498,-187
8183,-127,234,-231
8198,-43,218,-225
8209,23,244,-145
8223,-3,246,-87
8235,178,374,21
8249,33,485,-13
8261,-43,312,-132
8275,-1,313,-150
8288,-25,362,-116
8300,7,324,-135
8315,7,267,-181
8327,73,279,-120
8338,90,263,-131
8351,83,224,-146
8363,83,200,-119
8374,22,218,-126
8386,35,206,-148
8397,-29,243,-123
8409,-112,266,-121
8420,-57,195,-121
8432,-69,187,-93
8446,5,181,-96
8457,-12,150,-130
8473,-33,180,-131
8485,-64,176,-147
8497,-96,140,-157
8508,-64,209,-96
8522,-37,265,-77
8534,-56,283,-101
8548,-88,306,-66
8560,-28,322,-58
8574,11,517,42
8586,-41,436,-22
8600,5,375,-79
8611,-77,403,-56
8626,-56,437,-43
8637,-91,466,-11
8650,-108,515,23
8661,26,465,4
8675,-4,411,5
8687,-54,359,-58
8701,-40,269,-105
8712,15,311,-47
8726,-87,305,-66
8738,-21,306,-63
8752,22,394,-8
8763,-17,349,-45
8777,66,352,-50
8789,68,366,-34
8803,60,356,-24
8814,-38,452,-43
8828,-72,402,-51
8840,-82,374,-54
8854,-24,378,-46
8867,31,423,-9
8878,17,426,-16
8890,-105,410,-66
8901,-181,405,-73
8912,-218,238,-128
8924,-123,211,-113
8936,-38,259,-66
8947,-8,368,-31
8959,28,427,-5
8970,-2,410,-48
8984,-24,359,-82
8996,-44,397,-76
9010,-60,321,-58
9021,-14,305,-65
9034,92,174,-65
9047,3,168,-55
9058,144,129,-136
9069,256,183,-124
9081,284,371,-20
9092,398,680,63
9104,731,756,293
9115,543,1228,424
9126,256,865,128
9140,21,950,77
9152,-227,1074,36
9166,-314,1043,3
9177,-285,1181,11
9191,50,1272,109
9203,60,1407,104
9218,-58,1484,73
9234,306,1839,163
9245,327,1854,444
9257,488,1930,467
9268,127,1962,397
9283,13,2373,240
9294,-138,1913,153
9309,-11,1433,229
9320,157,1345,272
9334,233,529,239
9346,752,-132,98
9360,541,-1082,-438
9372,1276,-2415,230
9384,666,216,253
9396,1376,2200,1006
9407,157,2359,777
9419,411,1710,263
9432,-473,967,-316
9444,-253,732,-112
9455,-1,406,-53
9467,150,154,-101
9481,321,373,94
9493,38,434,110
9510,44,623,-47
9522,42,611,-169
9536,139,681,-80
9548,306,666,-143
9559,317,779,-1
9571,381,687,55
9583,376,485,-12
9595,111,469,-31
9606,159,463,-31
9620,52,366,-40
9632,165,282,-32
9643,170,261,-28
9655,166,300,10
9667,103,276,-53
9678,59,322,-65
9690,95,341,-50
9702,241,374,21
9714,197,413,22
9726,156,348,13
9738,103,308,-32
9752,28,249,-45
9764,129,195,-20
9778,71,210,-42
9789,103,221,-27
9804,98,228,-6
9818,13,262,-44
9830,18,197,-90
9844,14,154,-20
9855,-26,115,-80
9870,-54,-18,-109
9881,7,-82,-139
9895,41,-37,-113
9907,-14,63,-73
9921,8,71,-32
9933,-95,52,-82
9947,-20,73,-122
9958,13,57,-56
9973,-74,78,-118
9984,17,42,-90
10000,-14,93,-85
10012,16,113,-103
10023,-12,121,-58
10035,89,93,-40
10049,-34,127,-82
10061,48,119,-54
10075,-80,59,-107
10086,-75,38,-103
10100,37,45,-54
10111,-38,37,-78
10125,-86,7,-127
10137,-51,-24,-113
10151,-4,-21,-115
10162,-3,28,-79
10176,25,73,-102
10189,-61,44,-112
10201,-33,-11,-138
10212,-39,-11,-139
10224,48,53,-95
10235,71,120,-75
10246,127,175,-76
10258,36,191,-67
10272,8,170,-91
10283,-98,92,-103
10297,29,23,-61
10309,33,55,-50
10323,85,95,-52
10334,-19,79,-88
10348,-8,107,-114
10360,-44,141,-114
10375,44,131,-62
10388,-23,148,-66
10400,46,132,-70
10411,-1,132,-63
10422,-87,102,-115
10434,25,46,-114
10446,23,92,-75
10457,7,115,-57
10469,-47,119,-95
10480,17,111,-41
10494,-82,115,-74
10506,-37,43,-94
10520,28,213,-9
10531,-72,278,3
10545,109,338,6
10557,8,407,81
10573,-137,258,59
10584,-199,164,-64
10596,-154,158,-203
10607,-77,101,-76
10621,-10,-21,-86
10632,83,78,-38
10648,7,161,-60
10662,-128,132,-183
10673,-210,20,-275
10687,46,-98,-183
10699,-47,-112,-135
10713,26,-173,-171
10724,-127,-236,-238
10738,-220,-744,-594
10750,471,2015,555
10766,-1574,4536,1815
10777,-96,7332,1476
10790,-1687,7013,1047
10801,-1343,7502,682
10813,-1390,5693,256
10824,-743,3120,-569
10836,259,1510,-765
10847,-19,-418,-767
10859,59,-2636,-885
10870,363,-4058,-975
10885,-617,-6544,-1240
10896,-1305,-8377,-892
10911,3873,-8640,-1360
10923,-494,-573,886
10934,479,-774,797
10947,1064,-1142,-104
10959,-25,-639,-495
10970,-961,101,-319
10982,-503,118,-326
10996,132,121,-188
11007,-254,69,-143
11021,309,-239,-233
11033,-131,-158,-243
11047,12432,28357,7326
11058,-3718,1587,-789
11071,1189,8373,217
11082,1428,4777,-1278
11094,-2848,-149,-2037
11108,113,-18,-682
11119,474,-1945,-803
11133,461,-7077,-879
11146,-2701,-10076,-1171
11158,-76,-10949,-1569
11169,2695,-7071,-756
11183,-918,-1819,896
11195,-69,-3178,171
11209,1887,-1308,-11
11220,339,-159,-363
11234,-575,615,-79
11246,356,676,-41
11260,-219,1117,-238
11271,-140,632,-310
11285,-13692,20621,4844
11297,150,-7887,-4314
11311,4791,2432,-888
11322,476,2657,-1133
11338,-2282,-2939,-1414
11350,-504,-3397,-423
11362,-839,-5161,-354
11374,-2001,-7408,-385
11385,4051,-3594,556
11396,608,-1211,622
11408,-157,-697,457
11422,396,-634,-162
11433,-69,-48,-307
11447,-522,413,-176
11459,-184,296,-257
11473,59,225,-151
11485,268,329,175
11497,276,417,-4
11508,115,354,-129
11522,-64,72,-361
11533,24762,29810,14781
11545,-635,-8759,-4964
11559,3229,4192,-225
11570,4244,5368,-600
11585,-2523,-3696,-2886
11596,-1590,-4654,-1346
11611,-2440,-8496,-856
11622,-795,-10966,-679
11636,901,-9722,-671
11648,2312,-1657,1020
11660,-1265,-1463,382
11672,846,-1545,138
11683,465,-2012,-484
11695,-15,-454,-317
11708,-603,464,-149
11720,-100,242,-356
11731,-224,199,-412
11743,13665,15650,5279
11758,-11498,-2227,698
11772,4495,10355,1244
11784,3769,6149,-758
11798,409,-1784,-1852
11810,-739,-3098,-1118
11824,-1055,-7704,-1635
11836,-3505,-11975,-1385
11850,-771,-13025,-918
11861,-906,-12338,-2610
11876,-1952,-1060,515
11887,-314,-2479,56
11902,1743,-2263,70
11915,636,-1033,-30
11926,-465,-162,-9
11938,-227,-155,-199
11950,7692,10974,2522
11962,-5434,28286,6051
11974,-157,1354,-1506
11985,4415,11336,789
11997,2259,10539,-179
12008,-964,5855,-1681
12022,-506,1009,-1626
12035,32,-2193,-1306
12047,-2637,-7275,-1768
12058,-5825,-17183,-1913
12070,250,-15483,-1401
12081,1078,-14209,-2490
12094,326,-680,1408
12106,313,-3654,750
12118,2423,-3709,241
12129,2570,-2641,-16
12143,-573,-790,-113
12155,-1002,73,-284
12169,-591,-62,-689
12181,-470,336,-497
12195,-368,496,-70
12206,-118,18,-154
12219,-115,-308,-227
12231,149,-334,-99
12242,-18,-330,-152
12254,56,-320,-207
12265,-103,-148,-157
12278,-204,7,-178
12290,-169,3,-91
12302,-184,69,-68
12314,-98,22,-146
12325,4,101,-25
12337,7,258,62
12348,-157,314,16
12360,-105,238,-171
12371,13876,24822,8055
12386,-12999,3795,1067
12397,3024,2119,-2741
12412,2617,21771,4228
12423,1089,8201,100
12437,2121,12688,2925
12449,3742,9072,1180
12465,1393,360,333
12477,438,-1540,181
12488,-1095,-2605,181
12500,-3317,-4338,-317
12514,-4341,-5258,-849
12529,-5311,-21213,-6201
12541,-3658,-23056,-7443
12555,-1892,-11121,-2841
12566,-1701,-7385,-1980
12581,-1234,-8338,-1607
12596,1868,-2479,969
12607,1742,-4084,571
12621,1873,-2916,622
12633,1142,-2357,186
12652,67,-735,-8
12665,-202,-296,-203
12677,-558,249,-436
12688,-582,259,-478
12702,-292,-10,-231
12714,-200,-140,-214
12726,-26,-443,-140
12737,104,-503,21
12749,-18,-345,-40
12763,-104,-658,-287
12775,-181,-165,-121
12789,-205,-97,-189
12800,-70,-45,-135
12814,-77,-145,-133
12830,-198,-288,-186
12842,-60,-262,-163
12853,12,-188,-68
12867,-250,107,-58
12879,-222,-176,13
12890,908,919,362
12902,12949,32233,10410
12913,-4039,19299,3213
12925,2350,31894,5175
12936,1661,26464,7568
12950,10301,3243,3471
12962,9373,-5795,-2863
12976,4338,2172,-716
12987,4743,-2906,-314
13001,-145,-528,22
13013,-2762,-876,569
13027,-8056,375,-371
13038,-10062,-3724,-2606
13051,-8788,-8492,-4866
13063,-987,-8155,-4551
13077,-9646,-3542,-4009
13088,-3067,-11144,-3936
13103,-982,-15077,-4060
13118,1077,-11388,-1670
13129,994,-8681,-599
13144,821,-11568,-1151
13156,1648,-7717,-91
13167,1938,-6041,223
13179,1597,-4774,187
13190,1246,-3442,189
13202,806,-2043,161
13213,217,-2105,-221
13224,-286,-1030,-337
13238,-653,-473,-531
13249,-550,-245,-466
13260,-468,-236,-360
13275,-200,-348,-183
13286,-127,-589,-182
13300,-76,-716,-190
13311,33,-508,-40
13326,49,-391,-68
13337,-52,-296,-74
13351,-44,-366,-151
13363,-17,-274,-147
13377,-70,-167,-141
13388,-57,-293,-132
13401,-31,-318,-121
13412,-2,-254,-81
13426,52,-238,-48
13438,-52,-168,-124
13449,-160,-109,-228
13460,-26,-173,-189
13472,-19,-101,-65
13483,-191,-102,-88
13497,-507,-879,-292
13509,299,41,100
13523,3672,12294,2485
13534,-6237,13309,3068
13548,2477,18180,1896
13560,5087,30194,4263
13574,1336,10373,2295
13585,231,14410,4857
13599,3889,2472,695
13611,1561,4189,1251
13624,892,904,1460
13635,-415,-3073,-1018
13650,-5534,-1839,-1276
13661,-6753,-1239,-1694
13675,-2824,-6487,-4575
13687,-4520,-9176,-4630
13702,-3397,-12160,-4235
13716,407,-14491,-4465
13727,-669,-13818,-1628
13742,1359,-10094,-1039
13753,1667,-11331,-1237
13767,2704,-5536,915
13779,2206,-5465,123
13793,1592,-3559,269
13805,1273,-2193,327
13818,299,-1749,-170
13830,-267,-647,-327
13844,-483,-134,-383
13855,-501,-30,-380
13870,-316,-84,-304
13881,-97,-248,-184
13895,-92,-609,-116
13907,94,-612,-107
13921,77,-614,-56
13933,-31,-524,-89
13947,-46,-303,-117
13959,-105,-146,-111
13973,4,-123,-117
13984,2,-92,-28
13997,-99,-58,-65
14010,-36,-198,-134
14021,-13,-73,-64
14033,-30,-129,-62
14045,8,-251,-30
14059,-116,25,-86
14070,-206,-107,-163
14085,122,333,36
14096,-6,405,27
14110,-11,372,-115
14122,5333,24143,5902
14136,-1560,13817,1450
14148,4548,25876,3307
14162,-163,12392,2269
14174,-3323,5038,60
14188,1282,9230,3165
14199,533,1984,907
14213,1247,310,665
14224,-667,1591,-66
14238,-1621,-731,-964
14250,-2251,-1537,-1531
14264,-1831,-2124,-2096
14277,-3753,-1857,-2735
14288,1321,-8093,-3552
14301,-3744,-11353,-4016
14315,-423,-14000,-3442
14327,510,-10627,-1478
14341,1395,-11578,-1480
14353,2882,-12278,-964
14367,3114,-5886,1327
14378,2925,-5656,563
14393,1820,-3143,567
14406,872,-2141,222
14417,82,-1121,-280
14429,-382,-369,-534
14443,-554,-26,-504
14455,-490,-340,-516
14469,-122,-412,-276
14480,-91,-813,-113
14495,-52,-595,-194
14506,112,-896,-62
14521,74,-633,54
14532,-13,-877,-133
14546,24,-323,-167
14559,-202,-375,-205
14570,-38,-156,-107
14582,-85,-386,-74
14596,-81,-240,-110
14608,-51,-151,-166
14622,15,-92,24
14634,64,-190,-16
14648,30,-63,-103
14659,-197,69,-145
14674,-277,-214,-216
14685,-140,56,-43
14699,253,480,82
14711,983,7082,2589
14725,-4177,11696,2773
14737,-263,17446,3086
14751,-1660,17930,1038
14763,-932,14814,943
14777,-585,14347,2354
14790,-3229,8163,1390
14802,1213,4076,1534
14813,1405,5520,3302
14828,2795,3110,1866
14840,2583,4107,2122
14852,2437,2867,1203
14863,642,187,-792
14875,-627,224,-737
14886,-881,-813,-1093
14899,-1820,-1996,-1190
14913,-3914,-1824,-1043
14924,-458,-3324,-1491
14938,-2964,-10575,-3887
14950,2304,-10071,-3362
14964,-1500,-10660,-3564
14977,-1154,-9402,-2695
14989,-696,-8433,-1855
15000,328,-4601,-477
15014,702,-8763,-1665
15026,1594,-7510,-833
15040,1723,-6005,-444
15051,1478,-5569,-531
15065,786,-5403,-322
15077,1020,-3683,174
15091,771,-2098,50
15102,612,-1919,8
15117,-7,-1020,-209
15132,-220,-726,-408
15143,-192,-488,-364
15157,-133,-356,-248
15170,-132,-314,-207
15182,41,-626,-183
15194,79,-709,-163
15205,132,-541,-81
15217,104,-702,-115
15228,245,-621,-84
15242,361,-810,-23
15254,462,-738,67
15268,448,-657,-13
15279,-56,-485,-173
15294,92,-303,-205
15305,5,-291,-143
15319,105,-242,-17
15330,98,-99,-63
15345,-64,-138,-166
15356,22,-112,-151
15369,186,452,40
15381,-146,976,198
15393,-6,2739,677
15404,-638,3364,722
15415,-110,7043,1368
15427,-991,8398,1247
15438,-119,14405,2239
15449,51,21475,2336
15460,-3201,19560,732
15472,-1678,16566,229
15486,-2065,14325,1404
15501,-277,3587,1667
15512,1340,12444,6166
15526,5824,697,201
15538,4916,681,1610
15551,643,1955,1198
15562,443,-493,139
15576,-1016,-755,-695
15588,-1999,-2368,-1393
15602,-3159,-4129,-2009
15613,-4438,-4255,-1908
15628,1737,-3812,-2145
15639,-3661,-5172,-2546
15653,5049,-8403,-1964
15664,-2517,-6982,-1512
15680,-1302,-6536,-1194
15694,-168,-5133,-773
15705,1020,-2845,-209
15719,425,-3184,-55
15731,662,-3666,-75
15746,1097,-4347,-531
15758,927,-3431,-376
15769,827,-257,328
15782,-16,7530,1897
15793,-174,12018,2412
15805,-757,12034,1732
15821,33,19061,3472
15836,4707,2258,1100
15847,2581,-836,585
15861,-105,1990,1278
15873,-408,1458,1098
15887,-224,-3843,-477
15899,-1219,-4303,-1105
15910,-273,-3036,-1347
15922,-1271,-5556,-2474
15934,5158,-8792,-2868
15947,-2571,-9289,-2328
15959,-2320,-8220,-1814
15971,-997,-7571,-1372
15983,-445,-5123,-729
15994,-335,-5402,-979
16006,-431,-7271,-1639
16018,130,-6610,-1276
16030,474,-5838,-672
16041,443,-4038,-111
16054,-420,-3585,-55
16068,212,-2334,-303
16080,-121,-1443,-280
16094,807,2601,774
16105,826,12945,2636
16120,-907,17631,3454
16133,-1481,20977,3010
16145,-246,24041,3511
16156,323,9085,1540
16170,2221,1661,310
16182,3318,15665,5725
16196,4875,2923,1801
16208,5702,1609,2144
16222,3155,-2243,-450
16235,-12,-1267,-886
16246,-2337,-2016,-1441
16258,-3014,-2848,-1446
16269,-4028,-4077,-1734
16281,-4348,-6000,-2462
16292,-1528,-5858,-2270
16304,-2814,-4500,-2333
16317,-1062,-5957,-1984
16333,-4479,-9619,-2625
16344,-2021,-9163,-2330
16358,-471,-7003,-1611
16370,326,-4076,-646
16384,-80,-3883,-672
16396,430,-3146,-318
16410,599,-2450,-191
16421,585,-1399,33
16436,-219,2080,1042
16447,-53,8264,2139
16462,-478,13253,2698
16473,569,16324,2408
16487,1280,17325,3206
16499,6503,-3056,-1108
16516,4789,19593,6313
16528,8410,-2957,855
16539,3704,3061,1490
16553,214,511,241
16565,-1142,-1513,-879
16579,-2930,-1748,-1201
16591,-4105,-3116,-1415
16605,-4446,-5006,-2232
16616,-1146,-9779,-3259
16629,-3732,-7264,-2799
16641,-2126,-9244,-3156
16652,783,-14092,-3640
16664,-2105,-11278,-2872
16675,-548,-8931,-1929
16687,482,-4902,-607
16703,534,-6192,-1250
16714,735,-3973,-396
16726,512,-4349,-666
16737,605,-3462,-465
16752,488,-3076,-469
16763,487,-2629,-384
16777,1,-1444,-286
16790,-360,53,-64
16801,346,6560,1628
16813,-593,9063,1388
16825,1664,16067,2420
16836,743,20136,2807
16848,-766,23061,4947
16859,3190,6196,2669
16871,6436,9802,4698
16884,5233,1817,1631
16898,2917,1972,707
16914,986,-514,-679
16925,-1026,-994,-641
16939,-2740,-1330,-784
16951,-4009,-1755,-719
16965,-3061,-5045,-1557
16977,-2210,-9364,-2839
16991,-2724,-8668,-3325
17003,-4118,-12046,-4188
17017,-1509,-13774,-3595
17029,-1365,-11927,-2850
17040,354,-7088,-907
17052,495,-5960,-886
17063,837,-5212,-473
17080,1400,-4479,-420
17092,532,-3762,-285
17103,224,-1976,-285
17118,-391,-1936,-568
17129,-580,-1031,-439
17141,-511,617,-386
17152,3229,18891,3104
17164,-2624,16023,2195
17178,4768,23455,3774
17189,-332,16840,3952
17203,1749,12603,4917
17215,4226,10195,4125
17229,5735,1832,1070
17240,3977,114,434
17254,2584,1151,-48
17266,947,261,-188
17279,-168,-868,-678
17290,-1059,-1092,-318
17302,-2166,-531,-362
17313,-3940,-1255,-259
17325,-5220,-3388,-1277
17336,-3879,-7268,-2758
17351,-3418,-9804,-3457
17365,-3781,-14137,-4080
17377,-2481,-15602,-4030
17391,278,-11430,-2461
17402,708,-6354,-684
17416,880,-4069,-234
17428,1055,-3684,28
17442,924,-2976,-53
17453,296,-2107,-202
17468,-585,138,125
17479,-340,5662,1216
17490,-1356,8600,1103
17502,1437,15250,2172
17513,-637,21085,3305
17527,-45,22787,5210
17539,2076,11468,4986
17553,5515,11655,4977
17564,6758,7639,3938
17578,5688,4705,2491
17590,5956,2074,883
17604,4143,714,115
17615,1596,127,408
17630,669,-189,163
17644,-1733,-108,136
17657,-3534,-2426,-646
17669,-6212,-3296,-1730
17680,-6981,-5862,-2774
17691,-4884,-10750,-4410
17705,-2524,-11398,-4154
17717,-7854,-12917,-4653
17731,-4789,-8474,-3103
17746,-1302,-8269,-1908
17757,-616,-5191,-1214
17771,-144,-1520,14
17783,-281,-573,85
17797,-233,927,266
17808,191,3092,676
17822,817,6110,1158
17834,1729,10340,1815
17848,510,18620,4002
17861,8518,12043,5098
17873,7834,15065,6293
17884,14201,1013,2858
17898,7716,-1668,544
17911,4564,152,86
17922,1410,-305,237
17933,616,-148,-137
17945,-469,-492,-363
17959,-1235,-1505,-457
17970,-3706,-2729,-766
17984,-4945,-409,-1354
17996,-5575,-4766,-2188
18010,-1212,-6753,-2716
18021,-2717,-10944,-3819
18034,-5197,-13926,-5040
18063,-2656,-5142,-1430
18074,-1790,-4487,-1048
18086,-615,-2761,-589
18097,-618,-343,52
18108,-85,-1684,108
18120,-35,-1122,76
18131,-13,192,306
18142,537,3469,790
18154,643,11044,1664
18165,2749,16001,2675
18176,-237,21010,5682
18192,8906,11536,4507
18206,12619,4333,3655
18218,8490,-2460,240
18229,75,359,73
18243,2298,-2305,-342
18255,275,130,-201
18266,234,-376,-503
18278,63,-2210,-390
18290,-532,-3352,-556
18301,-1551,-4516,-759
18313,-2592,-4627,-789
18325,-3501,-2166,-1315
18337,-4940,1029,-1032
18348,-2059,-3137,-1514
18360,-2532,-3562,-1479
18371,-3402,-7820,-2284
18383,-5675,-7632,-2770
18397,-4554,-5797,-1731
18409,-2542,-5669,-1309
18423,-2302,-2458,-583
18436,-994,-2525,-283
18448,-537,54,210
18460,-173,2705,453
18472,-1074,10886,1366
18483,2591,17339,3143
18495,5032,13323,3392
18506,8364,13011,5162
18518,12718,-3645,1689
18529,1193,1967,377
18544,4202,-3173,-751
18555,1403,-1571,-271
18570,1125,-2267,-855
18581,275,-2181,-792
18594,-255,-3102,-797
18605,-1715,-3686,-609
18619,-3884,-387,-549
18630,-4563,-3004,-732
18642,-5670,-442,-825
18653,-2085,-4260,-1360
18665,-5857,-8873,-2348
18676,-5708,-10430,-3688
18690,-2960,-5792,-1819
18702,-622,-3059,-217
18716,-33,1711,468
18729,1694,10460,1435
18740,3561,16023,2504
18752,1725,17911,4188
18763,8527,11754,3709
18775,12358,1077,823
18786,2905,-376,-385
18800,4584,-4087,-1264
18811,1476,-3388,-477
18823,414,-536,-615
18837,40,-1671,-257
18848,-1180,-3978,-642
18861,-2348,-5648,-590
18873,-6531,-552,-447
18884,-4695,1304,-762
18896,-5260,-785,-888
18907,-563,-5476,-1333
18919,-6945,-6134,-2421
18930,-3315,-3429,-1511
18942,-3839,3834,189
18961,2893,13376,2899
18973,8757,13638,4175
18991,13287,-5761,2343
19004,6989,-6291,91
19016,2608,-1084,546
19028,-222,-738,-626
19040,-1627,-1847,-514
19052,-3079,-4105,-638
19063,-5132,-707,-981
19081,-5776,1731,-1019
19093,1398,-2248,-930
19104,-2299,-2760,-850
19123,-3928,5385,-445
19135,-2224,6481,801
19148,8572,10428,2741
19160,9281,9334,3614
19172,12490,-2212,1738
19188,1321,-2210,1613
19201,1670,-1742,1501
19212,415,-1873,103
19224,-1699,-4331,-1098
19236,-2703,-7638,-1515
19247,-5886,-4557,-1742
19259,-7394,3817,-1847
19271,-6234,602,-1829
19282,-1145,-5408,-1303
19295,-4952,7841,-669
19307,-370,11818,659
19319,11412,8153,2350
19330,13269,2185,3281
19347,7461,257,2338
19359,2806,-2770,2571
19373,489,-1571,911
19393,-3174,-3137,-526
19404,-6381,-1468,-1371
19416,-6063,277,-2456
19429,-7093,-5161,-2705
19440,-111,-5098,-2539
19452,-662,-7075,-2201
19463,-7392,-9985,-3809
19475,-5924,-5810,-2816
19486,-2954,-5157,-1432
19503,-2273,-4237,-120
19515,145,-2121,-3
19526,-486,-2229,-368
19541,682,-1911,-303
19552,-1334,-732,-346
19564,-379,117,-15
19582,-184,337,-8
19599,-82,240,-183
19611,-1570,2003,-80
19622,1015,1145,17
19639,-672,433,-198
19651,77,1031,145
19662,-380,1277,22
19676,-36,1352,67
19688,-108,2849,374
19705,-48,2997,445
19716,79,1956,252
19728,134,1472,126
19740,70,1746,204
19752,73,1752,210
19763,112,1592,220
19779,-24,1444,51
19791,54,818,91
19803,-12,289,-94
19814,-877,1486,-77
19826,789,-204,-156
19837,-123,-591,-280
19849,156,-175,-227
19867,247,-392,-190
19879,-99,56,-98
19890,-69,66,-81
19901,77,3,-52
19913,0,-17,-166
19924,-55,102,-146
19938,-1,-123,-78
19950,-51,-115,-131
19969,-204,303,-90
19981,95,81,-110
19992,-75,-262,-159
20003,38,-184,-97
20015,-33,180,-12
20029,-94,449,32
20040,27,310,41
20057,-62,464,-53
20070,-106,956,34
20081,-91,1454,203
20093,-180,1063,154
20104,-66,684,89
20116,68,1236,143
20132,-1018,4653,517
20153,1145,6159,1900
20167,3863,2624,597
20179,2275,2960,714
20191,1367,-201,-279
20210,109,1603,195
20222,-73,3056,1030
20234,2037,-2095,60
20246,865,342,-123
20261,86,154,-21
20276,377,574,0
20291,857,-169,53
20303,837,375,159
20315,775,2605,781
20327,2854,2100,573
20340,3980,-1219,-218
20352,47,-328,-157
20369,152,-342,-31
20381,1502,-429,256
20393,1357,241,602
20405,1742,-1280,311
20418,960,-123,141
20431,841,24,44
20444,883,-244,-7
20456,1555,-918,84
20468,1466,904,349
20480,496,-817,-32
20493,-10384,1229,-536
20510,1355,-391,35
20522,772,-416,7
20535,1505,-763,-28
20547,1970,-1023,-16
20564,1709,-590,172
20577,1602,-479,241
20589,1483,-392,172
20601,1658,-715,215
20613,1641,-696,137
20626,1625,-314,61
20638,1352,-563,36
20656,1570,-256,39
20668,584,-52,72
20683,49,-188,-52
20701,-62,-272,-67
20713,-502,-161,-33
20728,-1369,339,-165
20743,-2049,1008,-36
20757,-2663,1565,-35
20775,-2796,2000,-325
20787,-3216,2101,-447
20800,-2841,2236,-1059
20812,-3896,1570,-741
20824,-2702,-570,-559
20841,-2669,-1000,-927
20854,-2165,-2433,-1103
20866,-363,-5458,-1383
20878,985,-4343,-460
20890,4726,-2954,-611
20903,675,-4391,-1313
20915,-903,-5198,-1358
20927,-396,-1610,-484
20939,2052,-3194,-426
20954,-529,-2361,-873
20972,-1446,-3792,-823
20992,1660,-5173,-924
21005,-374,-6095,-935
21019,-382,-1332,-270
21032,-194,-851,-119
21044,-1452,-1259,-344
21064,-426,-2521,-554
21076,-3120,958,-230
21088,-1522,-3102,-580
21100,-622,-850,-254
21118,-1586,1668,-259
21130,-293,-1519,-541
21142,51,-1311,-129
21155,-379,-422,-82
21167,-42,-558,-127
21182,-264,-1286,-362
21196,-458,-989,-360
21209,-1890,134,-353
21221,-680,593,-397
21238,-615,-2172,-392
21251,-152,-163,-79
21266,-119,-548,-161
21283,-1577,-342,-379
21296,-816,1361,-221
21308,1273,-2624,-603
21320,-44,-605,-704
21332,-2565,11410,938
21345,-1461,23963,3113
21358,2403,7076,3005
21371,487,13329,2607
21389,9032,4664,1788
21406,3911,-1008,-488
21421,-17642,971,-942
21436,1994,-5359,264
21454,-1093,-2399,-393
21467,-3992,-3155,-512
21481,-3719,-2329,-889
21496,-375,-2398,-794
21508,2967,-4700,-979
21521,462,-5364,-2317
21533,-3152,-8649,-2596
21545,-2404,-5584,-1613
21557,-121,-1854,-116
21575,579,8288,1746
21587,1618,15173,2710
21599,984,16877,3584
21617,9769,6460,3241
21629,6338,4130,1255
21641,2145,2287,-226
21653,-439,-824,-727
21667,-2993,-1187,-878
21685,-3958,-4046,-1259
21698,-4924,-4567,-1048
21710,-4149,-7720,-2202
21722,-13,-10214,-3152
21734,-166,-13573,-2710
21746,-1878,-9314,-1996
21759,-1078,-4244,-857
21776,834,-2417,-437
21789,365,-1301,-84
21804,-1512,22355,2821
21821,1118,17915,4293
21834,10905,10388,4625
21846,11472,4270,866
21858,5669,-1754,-366
21870,-3144,1612,73
21882,-1059,-1148,-159
21895,-2083,-1076,-82
21907,-3280,-703,271
21919,-4396,-1744,-364
21936,-5841,-3948,-1639
21949,-5276,-8520,-2538
21962,3695,-16375,-3831
21975,-5131,-10587,-3221
21987,-1118,-5739,-1089
22000,-1728,-4023,-469
22017,1239,-1195,-144
22029,107,-1902,117
22041,-163,1507,682
22053,-1886,30606,3926
22065,2817,20238,3262
22078,12539,5628,3979
22090,13364,1367,699
22104,-3492,-1046,-1044
22117,-778,-1053,177
22129,-4224,-1859,-520
22141,-11158,197,-878
22153,-1611,-4515,2
22165,-3257,-4071,-1025
22182,-4837,-2023,-594
22195,1367,-7101,-1777
22209,1417,-12216,-3676
22224,-4806,-8442,-2721
22236,117,-5530,-895
22248,-1504,-2188,-48
22266,652,-179,301
22283,-1030,32376,5686
22296,2607,23800,4901
22308,15610,8125,4923
22321,9461,-7329,-1618
22333,-10044,1233,-287
22346,479,-3139,1164
22358,-1510,-1593,-63
22371,-1856,-3083,112
22384,-3587,-2755,151
22396,-6926,-63,-1483
22414,-1741,-2387,-1090
22427,96,-9228,-2382
22440,-972,-9273,-3876
22452,-3214,-3089,-2191
22465,-4844,650,-837
22480,33,11572,1793
22498,5017,16892,4052
22511,12884,4881,3598
22524,10077,-6598,359
22536,-15012,95,269
22554,1769,-4661,1242
22569,-648,-1698,172
22581,-3452,-1607,16
22599,-7008,-578,-1474
22612,-7925,2056,-1772
22633,1590,-9870,-2637
22646,4038,-10333,-3529
22659,-5582,-7094,-3264
22671,-26,-4989,-287
22684,-289,251,529
22697,454,-1731,318
22709,139,-3982,242
22722,-460,-148,320
22734,-1106,-7035,-774
22747,-14,-2551,20
22759,-390,-2396,-35
22772,-185,-2550,-230
22785,-244,-3093,-356
22797,-2411,231,-216
22810,490,-5063,-573
22822,-720,-2936,56
22846,-543,-2858,175
22859,-1170,-2699,405
22872,-3570,5979,1495
22892,-1237,-5557,830
22904,-1532,172,-454
22917,-2000,1221,1086
22930,-589,-1906,1221
22943,-999,-1126,50
22955,-2859,-397,942
22968,-309,-1368,1280
22981,-3078,2188,845
22993,-2299,-2251,-2987
23006,-1364,-1232,-4982
23019,-5988,-2461,-8680
23037,-9410,-6622,-4584
23055,744,-12032,-2287
23068,-3910,-10308,-109
23081,-1685,-6441,-2255
23094,-1680,-3224,-1447
23106,-1447,294,-417
23119,-1435,-3610,-1333
23135,-1898,-2121,-2186
23154,-1487,-3736,-1769
23170,-828,-2636,-1237
23190,124,-916,-468
23202,1201,-1609,-239
23215,934,-2377,27
23227,1388,-2586,-683
23240,2209,-4255,-990
23253,2923,-3634,-275
23271,2215,-1905,-342
23289,1158,345,-98
23302,41,1755,487
23320,-2174,-586,-527
23332,-2087,-996,-976
23350,-1261,-631,-768
23363,-247,-159,-205
23376,22,50,108
23389,-363,313,90
23401,-908,-557,-429
23414,-531,-181,-393
23427,-331,176,-246
23439,-276,126,-177
23452,-438,-307,-221
23465,-625,-383,-278
23480,-577,-217,-265
23501,-437,-105,-274
23515,-400,-35,-208
23529,-410,-78,-207
23542,-479,-81,-238
23554,-464,-187,-271
23567,-473,-126,-251
23580,-486,-99,-214
23593,-506,-124,-252
23605,-489,-78,-224
23618,-437,-57,-191
23631,-469,-14,-207
23643,-415,25,-186
23661,-478,9,-234
23674,-481,55,-172
23694,-386,56,-123
23709,-376,51,-154
23727,-387,85,-192
23740,-289,113,-164
23753,-286,131,-113
23766,-329,93,-145
23778,-287,124,-139
23791,-219,166,-111
23804,-244,148,-141
23818,-225,147,-117
23830,-260,140,-101
23843,-275,149,-142
23856,-258,121,-103
23869,-232,157,-102
23882,-221,207,-124
23898,-182,178,-126
23919,-193,165,-112
23932,-209,169,-114
23945,-203,184,-114
23957,-175,175,-144
23970,-203,157,-121
23983,-185,165,-99
23995,-146,159,-97
24011,-122,183,-111
24030,-161,167,-93
24042,-173,156,-105
24055,-167,171,-100
24068,-181,174,-94
24080,-158,168,-123
24093,-178,180,-98
24106,-153,149,-94
24125,-181,181,-93
24138,-148,182,-87
24151,-134,168,-116
24163,-126,192,-91
24176,-135,162,-85
24189,-151,153,-103
24202,-144,181,-94
24215,-136,175,-96
24228,-134,178,-80
24241,-145,176,-88
24253,-154,157,-101
24266,-121,202,-98
24279,-144,183,-91
24292,-144,151,-109
24307,-131,170,-71
24325,-159,173,-98
24338,-136,172,-96
24351,-149,177,-104
24364,-117,183,-97
24376,-148,186,-80
24389,-124,158,-88
24402,-147,168,-86
24415,-124,172,-102
24428,-128,170,-98
24441,-129,172,-84
24454,-128,166,-93
24467,-99,178,-89
24479,-100,169,-77
24492,-113,171,-102
24505,-121,171,-84
24522,-113,178,-85
24540,-126,180,-90
24555,-127,171,-90
24567,-116,181,-95
24580,-106,175,-77
24593,-101,157,-84
24605,-117,172,-93
24618,-113,176,-93
24630,-108,159,-105
24643,-127,165,-111
24655,-119,153,-123
24668,-116,162,-109
24681,-124,142,-120
24693,-107,150,-129
24708,-117,144,-118
24732,-117,171,-98
24746,-110,172,-88
24758,-116,162,-101
24771,-117,180,-101
24783,-112,181,-87
24796,-73,167,-104
24808,-110,169,-76
24821,-94,192,-90
24833,-109,188,-86
24845,-76,186,-82
24858,-90,174,-79
24870,-101,182,-87
24884,-112,163,-80
24899,-87,193,-62
24917,-96,177,-82
24929,-108,181,-87
24947,-89,181,-88
24960,-91,192,-89
24972,-107,197,-85
24985,-116,206,-65
25003,-139,174,-79
25015,-113,289,-117
25034,-89,143,-31
25047,-164,246,-90
25059,-122,216,-102
25072,-65,164,-74
25084,-108,209,-73
25097,-119,204,-66
25109,-114,175,-57
25122,-120,197,-65
25134,-85,202,-74
25151,-88,164,-86
25165,-84,173,-97
25177,-72,179,-92
25190,-65,172,-89
25202,-65,183,-99
25214,-91,161,-105
25227,-87,187,-90
25239,-81,174,-62
25253,-77,167,-74
25265,-90,179,-66
25278,-93,169,-69
25291,-86,192,-37
25303,-88,176,-18
25316,-82,194,-49
25329,-102,205,-57
25346,-87,187,-45
25360,-75,178,-11
25373,-125,241,18
25386,-79,158,-8
25399,-81,195,-40
25411,-89,219,-104
25427,-90,174,-112
25445,-82,182,-88
25457,-90,188,-75
25470,-86,195,-74
25483,-70,147,-109
25495,-78,185,-75
25508,-81,183,-83
25521,-102,187,-96
25534,-89,179,-72
25546,-102,183,-105
25564,-74,172,-90
25577,-91,181,-65
25595,-72,166,-69
25609,-90,187,-98
25622,-72,178,-76
25636,-98,189,-59
25649,-81,192,-53
25662,-83,183,-50
25674,-80,200,-89
25687,-81,185,-74
25700,-102,196,-87
25713,-82,183,-62
25736,-89,184,-109
25749,-72,182,-92
25762,-73,168,-93
25780,-44,175,-78
25793,-55,193,-78
25811,-62,173,-83
25824,-51,180,-90
25837,-65,181,-79
25850,-84,197,-68
25863,-85,182,-85
25879,-73,174,-85
25897,-51,156,-94
25910,-72,169,-88
25922,-71,178,-101
25935,-64,185,-91
25950,-67,174,-75
25962,-56,192,-76
25975,-72,175,-70
25994,-71,183,-97
26007,-92,183,-88
26020,-78,185,-92
26033,-81,191,-91
26045,-76,161,-104
26058,-66,179,-91
26071,-91,185,-83
26083,-66,189,-71
26096,-73,176,-75
26109,-77,168,-78
26121,-75,170,-82
26134,-65,171,-88
26150,-66,174,-70
26168,-61,162,-102
26181,-65,179,-89
26198,-57,180,-99
26212,-73,159,-87
26224,-66,168,-82
26237,-73,179,-83
26251,-91,183,-81
26264,-68,199,-56
26276,-77,209,-75
26289,-76,173,-102
26302,-63,172,-81
26314,-72,188,-87
26327,-87,169,-90
26340,-59,173,-88
26353,-54,180,-105
26366,-62,169,-99
26379,-56,182,-78
26396,-81,164,-80
26410,-60,161,-86
26425,-66,170,-86
26443,-52,163,-79
26456,-61,158,-84
26469,-79,157,-82
26482,-58,164,-93
26494,-49,166,-95
26507,-64,171,-74
26520,-78,158,-76
26532,-60,166,-88
26545,-74,164,-89
26559,-56,159,-82
26572,-64,165,-69
26584,-61,145,-81
26600,-60,155,-83
26615,-72,170,-83
26628,-57,156,-89
26640,-70,158,-115
26653,-51,169,-82
26666,-88,145,-78
26679,-59,160,-76
26691,-62,163,-91
26708,-56,174,-83
26723,-54,161,-87
26736,-52,169,-64
26749,-69,169,-87
26761,-69,157,-82
26780,-70,169,-94
26793,-64,186,-84
26805,-59,174,-89
26824,-51,174,-95
26836,-64,169,-100
26852,-68,178,-89
26872,-67,165,-80
26884,-71,152,-74
26897,-68,164,-83
26910,-61,162,-84
26922,-75,156,-84
26941,-85,175,-87
26953,-55,154,-78
26966,-66,158,-90
26979,-65,154,-92
26991,-70,156,-90
27004,-35,167,-94
27017,-57,166,-83
27035,-80,159,-93
27048,-53,172,-67
27063,-53,163,-77
27081,-63,149,-87
27094,-46,155,-99
27108,-64,167,-101
27124,-72,163,-86
27142,-66,166,-63
27155,-54,169,-92
27167,-56,164,-78
27181,-56,169,-84
27194,-79,175,-75
27206,-49,156,-92
27219,-63,174,-91
27234,-83,158,-88
27252,-64,174,-78
27265,-60,159,-76
27278,-54,167,-67
27290,-60,157,-73
27303,-54,155,-76
27315,-55,164,-68
27328,-49,146,-81
27341,-61,176,-75
27353,-40,160,-85
27366,-60,149,-73
27378,-52,153,-97
27391,-54,149,-90
27403,-69,167,-89
27416,-64,152,-93
27429,-64,164,-89
27444,-56,159,-87
27461,-66,160,-93
27474,-72,164,-92
27487,-52,154,-95
27499,-64,178,-86
27511,-61,171,-75
27524,-73,150,-85
27536,-67,177,-73
27549,-56,160,-83
27561,-56,155,-66
27574,-68,159,-88
27586,-50,141,-74
27598,-61,158,-72
27611,-68,160,-88
27623,-51,159,-89
27636,-54,170,-89
27655,-58,176,-84
27673,-69,155,-79
27686,-58,165,-102
27700,-50,156,-89
27715,-49,149,-67
27731,-63,158,-74
27749,-57,171,-96
27762,-39,162,-92
27774,-32,157,-99
27788,-61,171,-94
27800,-47,159,-99
27813,-51,152,-89
27827,-46,163,-102
27839,-38,157,-94
27852,-42,170,-98
27870,-63,168,-69
27883,-43,156,-71
27895,-51,168,-68
27908,-59,175,-81
27921,-43,167,-88
27933,-55,160,-86
27946,-54,161,-88
27958,-65,161,-98
27971,-45,161,-81
27983,-60,153,-86
27996,-57,170,-82
28009,-48,160,-107
28021,-52,160,-91
28034,-48,158,-92
28046,-50,160,-69
28061,-57,163,-69
28078,-73,174,-80
28091,-64,179,-84
28103,-29,173,-89
28116,-57,172,-109
28129,-53,170,-91
28141,-46,157,-92
28154,-70,186,-78
28166,-49,152,-82
28185,-52,153,-84
28198,-57,163,-83
28211,-66,146,-60
28223,-58,148,-88
28236,-65,160,-97
28249,-52,158,-83
28264,-43,136,-108
28280,-70,155,-97
28292,-41,135,-90
28311,-39,164,-82
28323,-41,156,-90
28336,-45,159,-107
28349,-50,147,-99
28361,-56,140,-104
28375,-36,141,-87
28388,-40,173,-75
28406,-48,124,-101
28419,-43,169,-85
28432,-33,159,-94
28445,-40,139,-95
28457,-47,154,-88
28470,-51,162,-86
28488,-61,153,-68
28504,-57,145,-73
28522,-46,149,-99
28535,-51,157,-91
28548,-49,147,-82
28565,-41,162,-77
28583,-57,157,-94
28595,-45,147,-79
28608,-28,141,-89
28621,-36,151,-84
28633,-62,142,-80
28646,-31,165,-102
28659,-39,153,-90
28672,-45,145,-75
28685,-37,153,-92
28706,-50,161,-83
28719,-50,154,-89
28732,-40,165,-75
28744,-35,149,-81
28757,-43,146,-108
28770,-43,145,-71
28786,-41,122,-103
28804,-47,146,-106
28817,-50,146,-91
28829,-42,158,-85
28842,-48,153,-91
28855,-43,145,-74
28867,-45,156,-112
28880,-43,157,-75
28893,-35,159,-84
28910,-51,154,-89
28929,-32,142,-73
28943,-65,148,-60
28956,-47,160,-86
28969,-55,147,-85
28981,-40,157,-96
28999,-46,139,-91
29014,-47,165,-85
29027,-65,129,-100
29046,-51,159,-79
29062,-31,141,-80
29080,-43,143,-115
29093,-29,164,-98
29106,-40,152,-95
29119,-38,152,-84
29136,-45,144,-105
29150,-39,151,-99
29162,-54,141,-80
29180,-61,150,-79
29193,-32,144,-71
29211,-36,148,-90
29224,-52,147,-78
29236,-36,170,-99
29249,-30,142,-86
29262,-56,146,-86
29275,-47,139,-80
29288,-49,149,-81
29306,-44,125,-69
29320,-46,161,-82
29334,-32,152,-82
29351,-38,146,-75
29365,-45,161,-91
29378,-29,165,-96
29397,-40,148,-66
29409,-52,175,-81
29422,-40,140,-104
29435,-46,143,-74
29448,-51,140,-82
29461,-38,144,-100
29473,-44,153,-83
29489,-59,149,-71
29507,-39,160,-80
29520,-57,157,-81
29533,-51,150,-86
29546,-55,149,-98
29558,-53,164,-81
29576,-40,148,-86
29589,-33,150,-77
29604,-40,145,-81
29622,-50,127,-82
29635,-39,141,-84
29654,-41,150,-75
29667,-48,161,-89
29679,-48,134,-92
29692,-28,144,-87
29705,-49,173,-94
29723,-36,151,-99
29736,-41,135,-101
29754,-33,153,-82
29767,-33,136,-86
29779,-44,137,-96
29797,-47,145,-65
29810,-28,136,-67
29823,-35,145,-111
29835,-53,154,-87
29848,-35,149,-74
29860,-46,146,-99
29873,-53,161,-77
29886,-38,148,-81
29898,-49,158,-69
29911,-38,144,-87
29923,-39,149,-96
29936,-34,172,-88
29950,-38,146,-92
29962,-44,149,-93
29975,-43,155,-95
29992,-55,147,-76
30006,-29,150,-67
30018,-48,144,-61
30031,-47,143,-94
30043,-35,152,-78
30056,-50,149,-74
30075,-44,159,-91
30088,-47,151,-76
30106,-41,151,-94
30118,-32,124,-102
30136,-28,143,-91
30149,-37,143,-65
30167,-41,143,-80
30179,-37,132,-104
30198,-53,148,-95
30213,-27,137,-83
30229,-53,154,-79
30241,-44,134,-86
30254,-33,143,-73
30266,-51,147,-101
30280,-45,149,-84
30298,-49,157,-92
30311,-47,139,-88
30324,-25,135,-89
30337,-32,133,-81
30349,-48,143,-82
30362,-45,145,-80
30375,-50,144,-81
30387,-49,152,-88
30400,-49,154,-87
30416,-54,155,-82
30434,-41,136,-64
30447,-40,147,-71
30461,-25,150,-74
30476,-36,125,-104
30490,-59,151,-82
30509,-46,142,-79
30522,-23,139,-100
30534,-37,141,-73
30547,-35,147,-88
30559,-43,151,-80
30572,-48,166,-86
30586,-38,144,-104
30598,-39,130,-108
30611,-28,163,-87
30627,-53,146,-92
30645,-61,142,-101
30657,-33,147,-80
30670,-39,145,-100
30683,-23,149,-95
30695,-44,142,-79
30708,-46,125,-101
30720,-34,144,-102
30733,-54,142,-93
30745,-49,145,-84
30758,-47,142,-81
30771,-43,136,-77
30783,-43,150,-103
30796,-50,143,-85
30815,-32,150,-102
30828,-44,126,-77
30844,-32,148,-97
30858,-36,138,-89
30871,-44,154,-80
30885,-35,129,-80
30897,-36,151,-90
30915,-48,141,-97
30928,-43,136,-91
30945,-45,154,-70
30958,-42,153,-79
30976,-28,124,-73
30989,-25,138,-83
31001,-51,158,-70
31014,-43,141,-86
31027,-43,155,-85
31039,-28,157,-79
31054,-52,140,-64
31070,-24,145,-93
31082,-31,152,-75
31095,-50,145,-96
31107,-42,128,-74
31120,-45,138,-86
31132,-35,138,-85
31145,-38,147,-95
31157,-22,142,-83
31170,-56,142,-83
31184,-34,144,-74
31201,-38,144,-97
31214,-27,130,-64
31232,-39,135,-79
31245,-48,157,-75
31263,-39,148,-81
31281,-39,143,-80
31294,-20,144,-81
31307,-34,133,-102
31319,-28,152,-74
31332,-37,149,-88
31345,-44,147,-94
31357,-22,130,-97
31370,-36,146,-87
31388,-52,151,-84
31401,-28,129,-90
31414,-34,146,-82
31426,-35,144,-82
31439,-50,139,-88
31452,-24,139,-70
31464,-31,140,-92
31482,-54,148,-79
31495,-33,154,-86
31515,-42,144,-84
31528,-32,135,-76
31540,-12,141,-82
31556,-15,140,-79
31570,-24,148,-94
31583,-33,147,-95
31595,-48,121,-79
31608,-46,143,-75
31621,-32,151,-70
31639,-19,119,-97
31652,-29,142,-85
31664,-36,137,-84
31677,-45,129,-88
31694,-46,135,-72
31708,-34,136,-104
31721,-23,138,-78
31733,-44,147,-66
31746,-27,143,-78
31764,-31,148,-93
31777,-26,140,-75
31790,-50,137,-78
31802,-36,139,-76
31816,-31,151,-94
31835,-37,140,-92
31847,-48,145,-79
31860,-26,147,-73
31873,-39,145,-87
31886,-26,140,-70
31901,-27,144,-76
31917,-37,156,-83
31935,-45,157,-76
31949,-50,147,-92
31962,-23,147,-83
31977,-41,136,-92
31995,-35,147,-85
32008,-55,152,-70
32026,-47,134,-91
32038,-37,123,-89
32056,-42,135,-81
32069,-39,123,-94
32087,-37,128,-87
32100,-20,131,-74
32112,-31,162,-75
32125,-32,144,-94
32145,-39,141,-94
32157,-33,138,-95
32170,-30,142,-83
32182,-18,149,-81
32195,-45,155,-91
32208,-47,138,-69
32220,-27,127,-84
32233,-47,138,-93
32245,-41,142,-89
32258,-39,134,-86
32270,-35,142,-87
32283,-28,146,-83
32295,-50,137,-69
32308,-22,138,-102
32322,-44,143,-76
32340,-18,141,-80
32358,-43,139,-84
32370,-49,134,-100
32388,-28,136,-87
32401,-39,142,-89
32419,-28,135,-85
32431,-37,129,-81
32449,-49,135,-91
32463,-35,148,-87
32475,-55,145,-89
32488,-26,129,-87
32500,-48,138,-92
32513,-20,132,-91
32526,-36,152,-80
32538,-29,138,-75
32555,-22,139,-73
32574,-25,135,-75
32587,-30,139,-90
32600,-31,135,-95
32612,-41,140,-79
32625,-35,144,-83
32638,-37,134,-89
32650,-25,153,-80
32663,-35,129,-93
32675,-29,132,-105
32688,-27,132,-74
32702,-35,150,-94
32725,-45,150,-107
32738,-43,138,-86
32750,-13,134,-73
32769,-38,146,-88
32783,-42,145,-90
32796,-14,152,-106
32809,-36,130,-76
32822,-27,142,-87
32834,-34,130,-90
32847,-45,132,-75
32865,-43,146,-88
32878,-37,139,-87
32891,-48,150,-93
32904,-36,154,-97
32917,-45,147,-102
32930,-41,131,-69
32943,-42,143,-77
32961,-11,138,-84
32974,-53,136,-90
32997,-35,147,-103
33009,-37,134,-91
33022,-40,136,-81
33035,-41,132,-87
33048,-46,142,-84
33060,-26,135,-93
33075,-55,139,-95
33088,-40,138,-83
33104,-49,146,-71
33122,-32,137,-81
33135,-34,139,-87
33147,-38,134,-85
33160,-35,139,-74
33173,-38,137,-81
33186,-36,131,-79
33204,-38,144,-76
33216,-40,141,-92
33229,-44,135,-84
33247,-24,146,-94
33260,-38,131,-82
33273,-35,136,-77
33285,-27,129,-90
33298,-47,152,-107
33311,-29,125,-98
33323,-34,136,-106
33336,-54,140,-75
33349,-36,127,-79
33362,-21,120,-88
33375,-29,149,-71
33388,-41,130,-102
33406,-33,127,-83
33419,-36,128,-56
33432,-31,146,-91
33446,-37,132,-103
33458,-20,139,-76
33471,-43,142,-86
33483,-32,140,-109
33496,-33,140,-103
33508,-21,140,-85
33521,-50,139,-78
33533,-19,130,-97
33546,-49,135,-90
33559,-32,140,-88
33571,-41,123,-82
33584,-36,140,-75
33601,-53,140,-83
33614,-31,130,-78
33627,-40,131,-87
33640,-31,151,-91
33652,-34,152,-96
33665,-32,143,-87
33678,-35,133,-85
33691,-28,147,-91
33704,-51,132,-96
33716,-30,137,-79
33729,-35,143,-69
33741,-40,133,-89
33754,-39,134,-76
33766,-38,128,-80
33779,-35,133,-68
33795,-23,129,-83
33811,-35,138,-99
33829,-23,130,-76
33842,-44,134,-77
33854,-37,138,-68
33867,-31,131,-103
33879,-45,155,-108
33892,-39,143,-77
33905,-37,139,-51
33917,-18,144,-96
33930,-41,156,-86
33942,-40,139,-88
33955,-46,127,-85
33969,-12,124,-92
33981,-48,131,-86
33994,-33,145,-76
34012,-43,136,-90
34025,-30,141,-67
34037,-34,139,-64
34050,-19,125,-81
34062,-29,128,-89
34075,-23,144,-81
34088,-25,130,-104
34100,-39,129,-83
34113,-28,126,-85
34125,-21,135,-82
34138,-39,143,-78
34152,-28,134,-91
34170,-21,129,-92
34183,-19,141,-85
34195,-30,147,-103
34213,-20,144,-90
34226,-34,137,-78
34239,-9,133,-99
34252,-27,139,-88
34266,-48,142,-90
34278,-26,148,-90
34291,-30,123,-84
34304,-35,150,-92
34317,-38,136,-84
34329,-42,131,-95
34342,-45,153,-92
34357,-34,138,-84
34376,-40,136,-91
34388,-34,138,-89
34401,-26,133,-88
34418,-20,146,-72
34433,-57,149,-102
34448,-26,143,-103
34466,-58,133,-78
34478,-35,136,-79
34496,-39,129,-73
34509,-32,140,-90
34527,-30,131,-81
34541,-33,124,-82
34554,-20,130,-90
34566,-46,134,-93
34580,-23,133,-95
34593,-23,135,-89
34605,-23,123,-90
34618,-55,140,-98
34635,-31,122,-84
34648,-29,126,-67
34661,-26,125,-85
34674,-41,131,-94
34686,-31,128,-83
34699,-23,131,-74
34711,-19,142,-70
34724,-28,150,-87
34736,-27,140,-111
34749,-37,144,-87
34762,-32,116,-102
34774,-48,145,-87
34787,-30,159,-95
34799,-31,139,-105
34812,-30,142,-71
34824,-18,133,-76
34843,-23,135,-60
34855,-30,145,-105
34874,-25,139,-87
34889,-45,146,-74
34901,-33,140,-89
34914,-27,144,-85
34926,-41,137,-75
34939,-34,125,-69
34952,-35,139,-98
34964,-32,126,-76
34977,-39,122,-96
34989,-28,139,-77
35002,-17,135,-67
35014,-41,148,-85
35027,-24,139,-87
35045,-30,145,-72
35058,-32,119,-69
35070,-56,139,-83
35083,-30,126,-77
35095,-27,144,-89
35108,-26,138,-81
35121,-49,127,-81
35133,-38,130,-74
35146,-10,127,-64
35158,-18,135,-71
35172,-22,132,-70
35185,-36,136,-93
35197,-46,142,-98
35210,-30,141,-96
35223,-37,134,-85
35242,-43,135,-86
35255,-32,141,-70
35268,-39,133,-61
35280,-45,127,-97
35293,-17,134,-96
35306,-21,131,-88
35318,-32,139,-85
35331,-24,126,-70
35344,-34,124,-105
35356,-26,137,-81
35369,-16,140,-79
35382,-39,129,-79
35400,-37,125,-98
35413,-42,133,-70
35426,-32,153,-104
35441,-41,139,-98
35457,-15,138,-90
35474,-32,128,-83
35487,-20,132,-91
35499,-32,147,-99
35512,-33,134,-86
35528,-37,138,-81
35546,-40,150,-85
35558,-23,127,-74
35571,-46,133,-102
35584,-39,127,-74
35596,-35,131,-71
35613,-35,132,-92
35631,-15,146,-76
35644,-28,143,-74
35659,-25,138,-73
35675,-32,141,-79
35688,-26,130,-74
35701,-42,126,-78
35713,-18,146,-86
35732,-40,144,-85
35744,-39,115,-80
35757,-38,136,-89
35770,-51,130,-75
35784,-40,127,-75
35802,-38,130,-76
35815,-41,129,-62
35827,-34,134,-78
35840,-32,142,-77
35853,-41,137,-83
35865,-24,140,-98
35883,-32,130,-72
35896,-29,151,-77
35909,-34,145,-71
35924,-26,136,-77
35942,-31,132,-78
35955,-19,145,-101
35973,-30,135,-81
35986,-27,144,-72
36000,-28,136,-106
36012,-33,139,-77
36025,-32,129,-83
36043,-26,131,-84
36056,-56,119,-92
36069,-41,138,-91
36082,-28,140,-87
36100,-38,144,-79
36114,-15,144,-101
36127,-28,135,-67
36145,-39,130,-78
36157,-17,122,-76
36170,-31,123,-86
36183,-31,129,-74
36196,-38,148,-80
36214,-33,121,-91
36227,-27,133,-81
36240,-14,128,-72
36253,-21,131,-84
36266,-31,129,-74
36281,-23,129,-84
36299,-33,130,-88
36316,-2,119,-81
36331,-22,134,-109
36343,-35,125,-81
36356,-40,132,-82
36375,-43,127,-87
36389,-42,143,-94
36401,-51,147,-72
36414,-32,121,-71
36428,-60,131,-99
36440,-32,128,-76
36453,-28,133,-79
36465,-28,148,-97
36478,-18,117,-66
36490,-12,134,-82
36503,-42,137,-56
36520,-36,125,-97
36534,-18,145,-83
36547,-33,137,-89
36559,-33,131,-88
36572,-38,142,-87
36584,-27,140,-82
36597,-20,132,-85
36609,-28,123,-74
36622,-30,121,-73
36638,-29,126,-99
36656,-33,134,-83
36668,-31,138,-94
36686,-36,131,-77
36699,-22,129,-109
36716,-47,123,-72
36733,-20,129,-100
36748,-17,142,-78
36762,-33,126,-90
36775,-18,141,-101
36787,-29,136,-87
36800,-29,114,-87
36812,-29,130,-79
36825,-30,135,-87
36838,-15,130,-76
36850,-24,128,-91
36863,-25,132,-97
36875,-28,134,-111
36888,-34,139,-97
36900,-32,121,-109
36913,-33,118,-86
36926,-30,125,-93
36944,-28,143,-85
36957,-37,150,-90
36969,-13,141,-84
36984,-31,132,-87
37003,-23,135,-94
37015,-33,133,-88
37029,-27,133,-88
37042,-20,139,-95
37054,-29,130,-72
37066,-31,128,-98
37079,-23,132,-87
37091,-43,129,-102
37105,-17,124,-92
37123,-36,134,-79
37136,-41,127,-87
37153,-42,132,-83
37166,-36,129,-76
37179,-29,126,-80
37191,-10,127,-87
37204,-35,152,-85
37217,-31,116,-78
37229,-42,115,-88
37242,-19,135,-85
37254,-19,129,-74
37267,-21,123,-110
37279,-18,135,-89
37292,-3,124,-82
37305,-17,126,-86
37317,-42,138,-75
37331,-25,120,-83
37346,-11,122,-89
37362,-6,118,-95
37374,-17,127,-93
37387,-22,140,-91
37399,-26,120,-76
37412,-26,131,-84
37425,-24,126,-94
37437,-21,132,-83
37450,-21,128,-76
37469,-34,112,-79
37481,-23,137,-74
37498,-28,143,-93
37512,-26,129,-84
37530,-29,136,-87
37543,-40,108,-91
37555,-27,110,-78
37573,-8,120,-92
37586,-24,127,-103
37599,-12,127,-87
37611,-22,135,-97
37624,-27,127,-82
37638,-36,122,-95
37650,-18,128,-87
37663,-39,129,-67
37676,-37,141,-78
37689,-19,142,-86
37701,-25,137,-61
37714,-26,133,-84
37727,-26,144,-84
37739,-27,134,-92
37752,-32,129,-83
37770,-5,143,-77
37783,-19,145,-85
37796,-44,135,-92
37809,-13,126,-107
37821,-57,120,-94
37836,-35,117,-61
37849,-8,130,-89
37862,-16,120,-87
37874,-30,133,-91
37887,-11,130,-72
37900,-30,137,-98
37913,-33,123,-92
37926,-14,134,-94
37939,-20,134,-90
37952,-30,135,-81
37970,-32,120,-72
37983,-28,123,-102
37999,-29,110,-82
38018,-5,142,-93
38031,-45,133,-104
38043,-31,142,-93
38056,-27,126,-88
38069,-28,133,-98
38084,-28,128,-92
38103,-16,132,-92
38115,-26,127,-75
38128,-39,130,-86
38141,-37,137,-85
38153,-31,118,-89
38166,-21,122,-86
38181,-22,119,-92
38197,-33,133,-82
38211,-29,124,-96
38224,-20,137,-84
38237,-10,129,-83
38249,-25,126,-87
38262,-51,143,-105
38274,-12,131,-80
38287,-34,128,-80
38300,-19,116,-67
38315,-11,126,-98
38333,-39,118,-84
38346,-20,139,-92
38359,-31,135,-76
38371,-37,122,-104
38384,-23,129,-108
38402,-26,129,-94
38415,-20,129,-89
38428,-22,116,-78
38440,-29,141,-86
38456,-42,146,-76
38474,-12,130,-98
38487,-22,144,-89
38500,-32,127,-79
38512,-19,123,-82
38525,-16,118,-86
38538,-24,108,-72
38552,-13,133,-92
38570,-10,126,-82
38584,-17,127,-115
38596,-24,138,-96
38614,-2,140,-104
38627,-34,119,-66
38645,-34,132,-84
38658,-25,142,-88
38675,-11,129,-81
38688,-25,132,-82
38706,-16,141,-79
38719,-15,138,-106
38737,-20,141,-91
38750,-21,121,-90
38762,-21,119,-119
38775,-18,116,-97
38788,-21,137,-76
38801,-30,144,-80
38813,-19,121,-94
38830,-41,133,-66
38845,-28,142,-57
38863,-39,126,-84
38877,-16,116,-73
38889,-29,126,-97
38902,-19,135,-96
38915,-18,119,-105
38933,-30,130,-83
38946,-43,133,-74
38958,-24,136,-55
38972,-32,120,-78
38985,-31,142,-103
39003,-23,130,-91
39016,-24,118,-94
39029,-21,126,-86
39046,-5,138,-94
39060,-21,118,-80
39073,-17,137,-72
39085,-18,130,-72
39101,-30,139,-87
39119,-26,123,-84
39132,-35,133,-84
39145,-46,121,-80
39157,-16,133,-93
39170,-21,125,-64
39184,-18,135,-96
39197,-34,131,-72
39210,-19,131,-101
39222,-29,125,-106
39235,-25,137,-91
39250,-23,128,-69
39266,-19,117,-93
39279,-16,139,-71
39292,-21,135,-66
39309,-28,129,-70
39322,-33,123,-57
39335,-16,119,-78
39349,-19,133,-91
39361,-24,125,-82
39374,-19,109,-101
39387,-17,122,-104
39399,-16,129,-95
39412,-20,120,-108
39427,-6,110,-98
39445,-19,112,-109
39458,-9,96,-87
39478,2,109,-127
39491,-48,129,-81
39504,-24,106,-39
39517,-42,123,-3
39529,41,141,-52
39542,-78,149,-129
39554,-30,110,-108
39566,-34,142,-76
39579,-1,121,-39
39592,-29,135,-63
39604,-50,136,-119
39622,-22,127,-77
39634,-16,143,-69
39646,-43,131,-82
39659,-21,128,-102
39680,-33,149,-71
39692,-34,134,-73
39705,-29,117,-105
39719,-15,115,-75
39732,-12,145,-75
39744,-41,132,-93
39757,-42,130,-109
39769,-31,126,-83
39782,-30,130,-69
39799,-19,116,-89
39812,-23,117,-84
39825,-10,141,-86
39837,-26,134,-86
39850,-9,101,-87
39865,-40,127,-78
39880,-22,124,-73
39892,-23,112,-81
39905,-15,118,-73
39917,-26,116,-74
39930,-35,140,-72
39942,-27,142,-95
39954,-34,122,-93
39967,-31,132,-96
39979,-24,128,-71
39992,-2,139,-72
40004,-24,134,-91
40022,-28,133,-83
40035,-20,124,-95
40053,-27,136,-83
40065,-19,135,-70
40085,-15,122,-77
40099,-9,120,-75
40112,-31,134,-82
40125,-15,124,-105
40140,-15,125,-102
40159,-9,130,-94
40171,-8,120,-88
40184,-40,120,-85
40197,-20,145,-73
40210,-13,119,-93
40222,-24,119,-86
40235,-13,130,-104
40248,-12,114,-91
40260,-16,145,-81
40273,-9,135,-85
40291,-24,109,-87
40304,-19,122,-84
40317,-16,140,-84
40330,-7,113,-73
40342,-19,110,-90
40355,-24,140,-76
40368,-37,133,-78
40381,-33,132,-78
40395,-18,113,-85
40407,-16,128,-78
40420,-27,145,-75
40433,-39,125,-100
40446,-34,130,-112
40465,-24,133,-91
40477,-26,127,-87
40495,-37,132,-91
40508,-27,135,-94
40521,-27,134,-83
40534,-20,121,-88
40546,-24,135,-89
40559,-9,132,-85
40572,-13,130,-89
40590,-9,126,-78
40603,-24,123,-78
40616,-15,133,-102
40628,-18,126,-75
40641,-36,135,-75
40654,-22,135,-75
40666,-20,121,-94
40679,-26,133,-72
40694,-19,132,-79
40717,-22,129,-81
40729,-27,139,-91
40742,-25,131,-79
40755,-23,144,-99
40768,-15,109,-89
40786,-22,141,-111
40798,-28,136,-82
40812,-13,119,-64
40825,-36,137,-88
40838,-27,113,-91
40853,-44,126,-83
40871,-24,121,-101
40884,-19,123,-70
40897,-24,133,-92
40912,-26,143,-76
40928,-44,128,-92
40941,-28,131,-84
40953,-15,136,-73
40969,-38,137,-98
40987,-23,116,-89
41000,-41,127,-70
41018,-29,122,-64
41032,-33,117,-74
41045,-33,129,-76
41060,-14,126,-79
41078,-23,140,-94
41091,-23,117,-95
41104,-25,124,-80
41116,-27,131,-73
41129,-21,127,-68
41147,-20,131,-106
41160,-22,130,-69
41173,-22,123,-68
41186,-24,139,-87
41199,-27,128,-81
41212,-28,147,-83
41225,-53,136,-77
41237,-27,123,-85
41250,-25,116,-91
41263,-31,130,-75
41276,-37,124,-89
41288,-32,127,-71
41301,-31,127,-91
41319,-13,130,-84
41333,-33,139,-70
41352,-31,114,-79
41364,-29,126,-91
41377,-12,120,-78
41390,-27,113,-84
41403,-20,120,-87
41415,-37,125,-87
41428,-24,122,-88
41441,-39,136,-86
41453,-32,111,-82
41466,-24,137,-94
41479,-19,117,-83
41491,-30,142,-92
41510,-28,110,-94
41522,-32,123,-81
41535,-41,127,-86
41552,-17,127,-84
41567,-23,123,-73
41580,-26,129,-96
41593,-29,129,-98
41605,-26,139,-76
41618,-20,134,-86
41632,-22,144,-89
41650,-37,120,-84
41663,-13,139,-90
41675,-29,138,-83
41688,-18,118,-92
41701,-20,131,-94
41714,-13,110,-95
41726,-22,128,-67
41739,-27,127,-82
41756,-22,135,-90
41776,-41,145,-84
41789,-23,129,-65
41801,-20,140,-90
41814,-31,134,-92
41827,-38,125,-80
41839,-25,139,-106
41852,-44,137,-93
41865,-32,124,-99
41878,-15,125,-66
41893,-20,121,-79
41911,-19,127,-88
41924,-20,135,-94
41938,-20,136,-74
41952,-14,133,-85
41969,-31,127,-90
41982,-15,115,-91
41995,-15,128,-81
42008,-30,142,-78
42020,-19,129,-89
42033,-20,134,-97
42045,-47,131,-78
42058,-34,116,-101
42070,-11,132,-86
42083,-14,116,-85
42096,-23,121,-94
42108,-37,139,-85
42121,-25,109,-87
42133,-30,120,-82
42146,-16,119,-83
42158,-21,131,-89
42176,-26,116,-78
42189,-8,122,-96
42207,-44,131,-75
42220,-38,126,-69
42238,-17,96,-81
42251,-5,143,-88
42264,-17,128,-95
42277,-32,137,-83
42289,-27,139,-106
42309,-17,130,-101
42321,-34,125,-70
42339,-34,115,-79
42351,-17,128,-82
42369,-23,123,-80
42382,-4,112,-99
42399,-36,143,-87
42412,-28,127,-93
42430,-18,124,-86
42442,-45,130,-88
42460,-47,130,-85
42472,-40,124,-94
42487,-44,119,-94
42502,-38,142,-80
42520,-25,129,-88
42533,-11,120,-93
42551,-32,133,-95
42563,-36,131,-83
42579,-32,136,-82
42592,-23,124,-88
42604,-17,130,-82
42621,-12,126,-88
42635,-9,125,-84
42648,-26,140,-89
42660,-29,135,-99
42673,-27,116,-70
42686,-53,130,-84
42699,-29,130,-81
42712,-33,116,-90
42724,-29,142,-95
42737,-32,117,-98
42750,-28,123,-71
42762,-17,139,-85
42775,-7,139,-91
42787,-35,121,-63
42800,-37,133,-87
42812,-15,139,-94
42831,-11,129,-82
42843,-19,143,-80
42856,-24,122,-100
42870,-27,131,-85
42882,-12,126,-85
42895,-24,125,-107
42907,-24,131,-89
42920,-15,126,-81
42932,-22,132,-71
42945,-15,124,-96
42958,-26,131,-107
42970,-36,132,-77
42983,-27,136,-94
42995,-24,123,-96
43008,-27,118,-93
43026,-37,133,-96
43039,-29,128,-77
43053,-14,121,-83
43071,-31,125,-77
43083,-16,135,-96
43096,-10,131,-95
43109,-18,136,-92
43122,-8,132,-64
43135,-33,128,-102
43153,-21,130,-57
43166,-35,130,-98
43180,-12,117,-73
43193,-36,137,-91
43206,-42,135,-76
43219,-39,118,-88
43237,-18,130,-86
43250,-33,132,-76
43262,-14,133,-89
43275,-34,135,-87
43294,-20,123,-69
43307,-19,139,-106
43319,-23,143,-86
43332,-9,130,-73
43345,-11,136,-82
43358,-24,135,-82
43370,-16,139,-88
43383,-29,126,-88
43396,-30,132,-98
43411,-29,130,-68
43425,-19,138,-87
43442,-12,121,-83
43456,-19,130,-72
43474,-23,139,-81
43488,-29,134,-77
43501,-14,118,-82
43514,-36,123,-88
43526,-30,143,-85
43542,-18,132,-87
43560,-23,117,-86
43573,-20,132,-80
43586,-25,143,-93
43598,-14,127,-93
43611,-19,133,-84
43624,-20,125,-70
43636,-25,122,-109
43652,-17,148,-79
43667,-27,117,-80
43680,-10,135,-78
43692,-42,110,-74
43710,-27,136,-103
43723,-24,125,-67
43741,-19,135,-67
43754,-38,136,-95
43772,-43,147,-70
43784,-31,125,-105
43804,-29,126,-77
43823,-23,134,-102
43836,-22,127,-93
43849,-31,130,-85
43861,-27,135,-76
43876,-11,124,-83
43892,-21,132,-84
43905,-32,130,-86
43923,-31,142,-98
43936,-12,136,-82
43949,-26,124,-80
43961,-18,130,-101
43974,-26,127,-73
43987,-31,126,-79
43999,-21,120,-91
44012,-36,132,-83
44025,-29,120,-83
44037,-19,134,-87
44050,-29,137,-82
44063,-34,140,-73
44075,-27,139,-84
44093,-35,127,-78
44107,-12,123,-69
44120,-27,133,-82
44133,-31,118,-71
44146,-28,130,-80
44161,-22,143,-87
44179,-26,124,-75
44193,-32,130,-83
44206,-30,124,-93
44219,-14,137,-81
44231,-25,127,-81
44247,-35,124,-73
44265,-18,140,-89
44278,-13,138,-75
44290,-48,132,-105
44309,-40,125,-94
44322,-18,117,-87
44334,-19,132,-86
44347,-11,135,-89
44362,-29,118,-71
44380,-20,134,-79
44393,-26,123,-74
44406,-14,126,-74
44418,-36,120,-99
44432,-20,118,-85
44445,-31,132,-72
44457,-7,140,-89
44470,-18,132,-89
44482,-14,144,-84
44495,-11,122,-86
44512,-17,137,-94
44531,-32,127,-75
44544,-13,126,-83
44562,-45,129,-95
44574,-18,131,-81
44592,-37,129,-81
44605,-28,150,-65
44617,-22,126,-81
44630,-28,137,-63
44643,-31,130,-81
44655,-30,135,-83
44668,-2,135,-92
44680,-42,136,-72
44693,-20,139,-82
44705,-23,135,-99
44718,-26,127,-74
44737,-33,118,-90
44750,-24,134,-91
44768,-5,125,-92
44781,-39,129,-79
44798,-27,142,-79
44811,-16,129,-92
44829,-14,130,-94
44841,-43,135,-71
44859,-12,123,-89
44872,-26,125,-81
44889,-27,144,-88
44902,-33,139,-88
44920,-37,139,-80
44933,-38,135,-82
44945,-3,109,-75
44973,-15,130,-69
44986,-39,121,-101
44998,-21,128,-98
45011,-25,135,-74
45023,-21,140,-82
45036,-23,122,-76
45048,-36,126,-108
45062,-22,141,-79
45075,-29,128,-74
45088,-36,140,-68
45106,-25,127,-92
45119,-18,129,-104
45131,-17,138,-87
45144,-37,123,-82
45157,-14,129,-81
45174,-13,124,-83
45194,-21,134,-79
45206,-19,128,-96
45219,-16,125,-89
45232,-35,141,-74
45245,-22,121,-72
45257,-10,124,-92
45270,-9,131,-81
45283,-23,123,-72
45295,-34,138,-90
45308,-13,137,-86
45322,-24,131,-97
45335,-27,115,-101
45347,-22,132,-74
45360,-40,130,-87
45374,-36,130,-94
45390,-26,126,-102
45403,-34,121,-73
45415,-14,124,-77
45428,-37,144,-77
45440,-31,135,-102
45453,-26,135,-71
45465,-17,127,-85
45478,-30,119,-72
45491,-33,144,-89
45503,-33,145,-98
45516,-11,113,-82
45528,-16,123,-68
45541,-19,123,-93
45553,-27,139,-82
45566,-20,135,-82
45584,-41,131,-81
45596,-25,146,-76
45609,-10,131,-84
45622,-20,127,-102
45634,-2,129,-89
45649,-13,126,-93
45668,-26,132,-93
45686,-20,135,-78
45698,-15,115,-75
45711,-19,130,-82
45723,-43,130,-76
45736,-23,122,-87
45749,-30,125,-83
45761,-29,141,-92
45778,-23,114,-94
45791,-34,149,-88
45804,-25,130,-76
45816,-45,121,-92
45829,-13,136,-77
45842,-6,149,-97
45854,-27,142,-86
45867,-24,130,-87
45879,-27,114,-56
45892,-26,122,-83
45904,-27,134,-91
45917,-30,127,-86
45929,-24,140,-82
45942,-24,126,-73
45956,-23,140,-100
45976,-34,148,-88
45992,-23,131,-79
46004,-23,128,-83
46017,-31,120,-101
46030,-37,137,-90
46043,-23,132,-84
46056,-25,123,-116
46074,-36,126,-84
46087,-30,129,-98
46100,-29,121,-89
46112,-26,134,-75
46125,-19,136,-76
46138,-29,126,-111
46150,-39,120,-87
46163,-29,131,-110
46176,-26,142,-108
46194,-11,115,-93
46207,-32,121,-81
46225,-25,129,-94
46238,-20,133,-82
46250,-24,135,-86
46264,-31,126,-94
46277,-15,144,-88
46295,-34,109,-81
46308,-10,141,-96
46321,-29,131,-70
46333,-32,133,-94
46346,-40,121,-80
46359,-21,131,-111
46372,-15,129,-89
46384,-32,136,-82
46402,-32,128,-104
46417,-21,130,-78
46429,-30,113,-69
46442,-30,126,-97
46455,-25,125,-84
46467,-10,138,-93
46483,-42,134,-85
46501,-34,121,-99
46514,-18,136,-94
46527,-25,130,-93
46545,-26,139,-82
46558,-28,146,-81
46570,-17,122,-80
46584,-22,132,-81
46597,-15,133,-98
46616,-46,151,-87
46629,4,121,-82
46642,-8,128,-70
46655,-29,134,-78
46668,-40,134,-88
46681,-44,136,-89
46693,-31,132,-83
46706,-18,118,-88
46719,-15,114,-88
46737,-36,136,-98
46750,-27,124,-80
46763,-17,124,-76
46776,-28,118,-76
46790,-25,134,-83
46803,-15,122,-79
46819,-18,119,-83
46834,-10,123,-98
46846,-40,134,-87
46859,-35,126,-90
46874,-23,127,-79
46894,-32,135,-90
46906,-21,133,-70
46919,-13,138,-73
46932,-44,138,-79
46944,-34,144,-97
46957,-29,140,-70
46969,-9,139,-77
46982,-26,143,-85
46994,-20,130,-99
47007,-26,119,-86
47022,-21,142,-101
47043,-34,124,-98
47056,-26,127,-90
47073,-4,142,-89
47086,-18,145,-72
47104,-26,128,-87
47117,-39,108,-86
47135,-41,132,-90
47147,-9,128,-85
47165,-31,127,-79
47179,-31,132,-84
47192,-29,134,-91
47205,-33,136,-98
47218,-11,142,-88
47231,-22,137,-93
47243,-33,160,-97
47266,-15,146,-92
47279,-28,132,-90
47291,-20,133,-74
47304,-35,136,-97
47317,-22,110,-87
47329,-29,143,-78
47342,-14,129,-86
47354,-51,119,-78
47367,-32,129,-104
47379,-30,133,-74
47392,-30,124,-82
47404,-33,126,-93
47417,-15,120,-96
47430,-21,125,-83
47442,-37,115,-77
47459,-39,140,-99
47473,-33,130,-75
47485,-27,140,-97
47501,-32,131,-89
47514,-33,119,-94
47532,-15,140,-89
47546,-13,146,-88
47559,-17,127,-87
47571,-14,134,-93
47584,-30,141,-83
47602,-10,124,-89
47615,-20,133,-89
47628,-23,126,-97
47640,-33,143,-72
47653,-26,127,-81
47672,-18,145,-90
47686,-20,124,-87
47698,-39,144,-76
47711,-27,125,-72
47724,-35,122,-97
47737,-12,137,-85
47749,-27,131,-75
47765,-33,126,-95
47783,-11,133,-95
47796,-22,125,-97
47809,-29,140,-85
47823,-6,144,-72
47835,-17,146,-92
47854,-31,137,-91
47867,-26,129,-75
47882,-28,144,-89
47898,-21,122,-92
47910,-18,123,-78
47924,-15,123,-86
47937,-36,132,-83
47950,-29,123,-92
47962,-14,125,-80
47975,-33,136,-74
47988,-23,123,-77
48001,-22,129,-88
48013,-33,131,-70
48026,-18,124,-89
48044,-24,133,-86
48057,-22,137,-91
48070,-28,119,-95
48082,-18,140,-84
48105,-27,140,-87
48118,-39,130,-75
48132,-10,136,-94
48150,-35,126,-71
48163,-27,133,-84
48176,-30,129,-89
48188,-19,125,-104
48201,-25,134,-85
48214,-31,133,-87
48226,-11,131,-80
48239,-12,140,-85
48252,-27,158,-89
48265,-24,122,-90
48277,-32,138,-87
48291,-30,138,-106
48309,-16,133,-110
48322,-26,140,-96
48335,-15,138,-79
48347,-19,132,-80
48360,-26,129,-69
48372,-15,128,-84
48385,-11,131,-89
48397,-37,129,-101
48410,-31,136,-98
48426,-23,129,-99
48439,-20,147,-93
48451,-31,136,-92
48464,-17,143,-84
48476,-26,127,-104
48489,-20,127,-82
48507,-24,109,-84
48520,-22,129,-81
48532,-11,133,-97
48545,-29,138,-94
48557,-33,134,-98
48570,-38,108,-69
48582,-32,137,-89
48595,-23,131,-102
48608,-39,123,-81
48620,-30,125,-94
48634,-21,126,-90
48652,-9,125,-72
48664,-18,125,-83
48682,-25,121,-94
48695,-17,138,-104
48717,-21,142,-96
48733,-19,139,-86
48746,-6,132,-77
48759,-18,123,-95
48771,-12,145,-86
48784,-37,117,-89
48796,-15,108,-77
48809,-33,127,-94
48821,-31,120,-94
48834,-23,124,-85
48847,-20,133,-89
48859,-32,132,-82
48872,-35,126,-89
48884,-24,127,-77
48897,-25,139,-69
48909,-43,145,-98
48928,-22,122,-82
48940,-27,138,-64
48953,-28,127,-77
48966,-27,120,-82
48981,-12,133,-84
48999,-37,134,-93
49012,-20,109,-82
49025,-23,124,-88
49039,-22,132,-78
49052,-46,124,-75
49065,-17,134,-81
49077,-27,144,-93
49090,-22,124,-79
49103,-13,122,-91
49115,-17,135,-102
49134,-23,128,-87
49147,-23,132,-99
49165,-27,139,-95
49177,-25,117,-90
49190,-22,143,-99
49203,-8,141,-101
49215,-27,125,-79
49228,-36,134,-80
49241,-35,121,-95
49254,-9,131,-84
49266,-10,139,-76
49279,-23,126,-86
49292,-25,144,-81
49307,-19,122,-86
49326,-39,144,-97
49344,-29,136,-78
49357,-25,129,-98
49375,-31,137,-75
49389,-33,135,-84
49402,-26,146,-71
49415,-30,143,-84
49427,-10,131,-85
49440,-28,115,-94
49452,-13,133,-72
49465,-32,130,-64
49477,-23,129,-85
49490,-42,133,-88
49503,-27,122,-70
49515,-25,124,-89
49528,-17,141,-84
49546,-28,135,-82
49559,-44,132,-96
49572,-4,132,-77
49584,-17,148,-96
49597,-22,144,-80
49609,-14,137,-62
49622,-19,136,-73
49636,-24,132,-92
49648,-28,132,-90
49667,-26,125,-66
49681,-26,135,-99
49693,-21,130,-79
49709,-26,138,-84
49727,-38,113,-76
49740,-50,126,-82
49756,-38,130,-74
49774,-33,117,-90
49792,-12,132,-77
49805,-29,117,-78
49823,-15,135,-78
49835,-36,132,-65
49853,-35,139,-60
49866,-32,134,-74
49884,-32,131,-73
49897,-24,127,-79
49909,-21,144,-77
49922,-43,129,-83
49934,-23,128,-80
49947,-35,133,-83
49961,-10,137,-87
49973,-25,125,-87
49992,-37,128,-87
50005,-37,119,-84
50022,-38,140,-77
50035,-33,141,-86
50048,-43,129,-80
50061,-19,129,-88
50073,-9,133,-84
50086,-38,129,-103
50102,-9,149,-81
50115,-48,114,-75
50128,-30,124,-89
50142,-17,136,-97
50155,-23,139,-90
50168,-29,115,-87
50181,-32,138,-83
50199,-12,134,-92
50212,-36,142,-70
50230,-19,143,-86
50243,-26,127,-91
50256,-28,124,-83
50269,-16,126,-74
50283,-33,143,-81
50301,-33,134,-65
50314,-15,142,-93
50326,-34,112,-74
50339,-19,124,-98
50352,-21,131,-85
50364,-12,132,-95
50377,-13,140,-82
50390,-29,136,-80
50407,-21,126,-79
50427,-19,124,-106
50439,-23,134,-77
50452,-11,131,-82
50465,-30,132,-71
50477,-48,131,-73
50490,-29,133,-87
50503,-6,128,-93
50517,-15,131,-92
50529,-30,125,-81
50542,-21,136,-99
50555,-34,122,-74
50568,-34,121,-93
50581,-15,128,-76
50594,-31,133,-85
50615,-32,121,-79
50629,-21,139,-81
50641,-20,132,-92
50654,-24,127,-86
50667,-25,125,-78
50679,-27,125,-87
50698,-26,151,-98
50710,-20,125,-98
50723,-22,122,-90
50736,-19,134,-74
50748,-21,135,-68
50761,-31,141,-93
50774,-34,127,-101
50786,-25,141,-77
50799,-26,141,-96
50812,-25,137,-96
50830,-19,130,-85
50848,-36,126,-89
50861,-20,137,-94
50874,-17,129,-96
50894,-16,118,-93
50906,-18,131,-99
50919,-40,131,-85
50932,-31,145,-80
50944,-30,133,-83
50957,-17,134,-93
50970,-34,125,-83
50982,-22,143,-56
50995,-14,128,-102
51008,-30,117,-96
51021,-28,139,-79
51039,-31,124,-76
51052,-15,146,-87
51065,-29,124,-92
51077,-31,137,-66
51090,-33,137,-71
51103,-28,128,-99
51115,-18,117,-96
51128,-17,127,-82
51141,-24,119,-94
51156,-40,117,-83
51175,-18,144,-80
51189,-17,133,-81
51201,-44,129,-85
51214,-15,137,-76
51227,-24,144,-80
51245,-27,145,-111
51259,-33,140,-93
51272,-7,122,-100
51284,-45,126,-78
51297,-23,133,-88
51309,-21,150,-75
51322,-10,127,-89
51334,-19,129,-88
51347,-16,138,-93
51362,-25,139,-109
51380,-18,128,-96
51393,-20,135,-79
51411,-12,127,-74
51424,-31,136,-89
51436,-29,112,-97
51453,-14,120,-89
51467,-7,116,-82
51480,-32,142,-110
51492,-23,127,-73
51506,-26,135,-98
51519,-18,139,-76
51531,-20,129,-107
51544,-25,144,-88
51556,-2,127,-83
51569,-25,137,-78
51582,-25,120,-78
51594,-46,143,-90
51607,-33,142,-71
51620,-29,116,-76
51633,-6,143,-81
51648,-19,117,-82
51664,-19,130,-87
51682,-20,141,-75
51695,-17,148,-76
51712,-16,120,-94
51725,-31,129,-86
51743,-29,112,-85
51756,-27,119,-85
51774,-12,118,-84
51786,-17,131,-95
51804,-24,144,-95
51818,-4,119,-92
51831,-31,125,-78
51843,-40,119,-83
51855,-22,124,-86
51868,-29,139,-63
51886,-18,131,-77
51899,-12,122,-100
51911,-30,131,-73
51923,-28,134,-84
51936,-18,128,-83
51948,-18,131,-80
51961,-20,136,-97
51973,-9,128,-65
51986,-31,139,-77
52005,-28,134,-69
52017,-39,123,-67
52035,-27,135,-74
52048,-18,121,-84
52066,-26,137,-82
52078,-3,118,-74
52097,-14,116,-86
52109,-37,135,-96
52123,-24,125,-98
52138,-20,120,-81
52157,-16,143,-91
52169,-24,138,-91
52182,-24,119,-69
52194,-15,138,-91
52207,-38,125,-86
52220,-36,135,-69
52232,-15,135,-89
52245,-10,120,-63
52257,-20,150,-88
52270,-31,135,-86
52283,-26,130,-87
52298,-20,132,-87
52313,-26,134,-84
52326,-22,121,-93
52338,-27,135,-79
52351,-40,126,-99
52363,-25,141,-87
52383,-31,149,-86
52395,-11,133,-115
52413,-24,137,-78
52426,-40,133,-68
52444,-35,135,-67
52457,-33,140,-94
52475,-25,145,-83
52487,-30,139,-79
52500,-31,135,-87
52513,-31,145,-78
52531,-38,117,-83
52544,-26,129,-91
52557,-25,128,-92
52572,-29,123,-99
52590,-21,123,-93
52603,-20,134,-70
52616,-23,128,-64
52629,-20,126,-98
52641,-25,134,-100
52654,-36,125,-88
52667,-9,137,-91
52679,-20,120,-83
52692,-49,112,-88
52705,-12,113,-81
52718,-12,124,-94
52735,-23,126,-89
52750,-20,140,-86
52764,-24,122,-92
52777,-33,128,-67
52789,-29,130,-93
52802,-34,130,-69
52815,-30,140,-95
52827,-34,128,-90
52840,-31,136,-73
52853,-30,119,-92
52865,-19,130,-88
52878,-39,128,-79
52894,-21,126,-88
52912,-24,135,-86
52924,-35,123,-87
52941,-9,134,-64
52956,-31,138,-71
52968,-29,136,-81
52981,-25,136,-89
52994,-37,136,-87
53009,-35,120,-67
53028,-27,142,-71
53040,-19,119,-74
53054,-38,135,-73
53070,-30,143,-99
53088,-28,135,-94
53101,-21,123,-92
53113,-26,128,-94
53126,-10,126,-72
53140,-27,119,-84
53158,-21,145,-73
53172,-31,137,-81
53184,-6,130,-97
53197,-31,134,-82
53210,-16,138,-94
53222,-15,125,-109
53235,-20,130,-74
53248,-45,136,-81
53260,-22,138,-82
53280,-26,138,-84
53299,-39,119,-80
53312,-32,122,-81
53324,-23,149,-74
53337,-13,131,-78
53350,-21,136,-69
53366,-22,118,-68
53382,-22,121,-82
53394,-38,139,-65
53407,-19,129,-82
53420,-27,126,-90
53432,-33,129,-82
53445,-23,137,-94
53458,-25,140,-90
53471,-15,127,-77
53483,-39,143,-94
53501,-22,127,-95
54146,-23,126,-79
54691,-22,143,-100
55214,-35,122,-102
55688,-27,124,-97
56215,-19,127,-86
56771,-24,133,-93
57017,-52,133,-66
57030,-18,147,-103
57043,-14,123,-80
57056,-37,131,-91
57068,-37,138,-82
57081,-21,130,-89
57097,-12,133,-86
57110,-31,130,-81
57123,-11,133,-93
57136,-18,149,-78
57151,-35,139,-87
57167,-34,125,-108
57182,-22,138,-82
57197,-30,130,-88
57213,-29,121,-94
57233,-18,119,-78
57248,-26,116,-77
57264,-25,134,-105
57279,-29,129,-78
57294,-14,132,-100
57308,-27,115,-89
57321,-23,147,-84
57333,-43,121,-78
57346,-37,135,-74
57358,-45,122,-88
57371,-29,131,-85
57383,-19,109,-88
57396,-11,115,-91
57410,-19,127,-85
57425,-26,127,-109
57442,-33,124,-75
57455,-24,131,-69
57470,-23,126,-89
57486,-9,132,-91
57501,-24,118,-83
57516,-26,131,-83
57532,-48,122,-110
57547,-37,113,-95
57562,-10,129,-80
57578,-23,128,-82
57593,-26,134,-71
57608,-25,123,-106
57624,-22,133,-81
57639,-8,142,-102
57654,-35,121,-68
57670,-30,122,-93
57684,-19,125,-78
57698,-15,133,-96
57710,-19,136,-89
57726,-24,122,-81
57742,-13,130,-90
57754,-17,127,-85
57766,-14,127,-81
57781,-19,132,-84
57793,-15,138,-86
57806,-23,149,-87
57818,-2,135,-77
57830,-23,131,-104
57843,-16,130,-79
57855,-20,121,-85
57867,-34,124,-85
57882,-28,140,-69
57897,-14,125,-71
57909,-40,123,-81
57921,-28,142,-93
57934,-31,135,-84
57946,-32,138,-98
57958,-21,134,-83
57970,-23,133,-79
57983,-9,116,-89
57998,-16,132,-77
58010,-16,114,-80
58023,-29,130,-99
58039,-22,113,-79
58052,-18,134,-63
58064,-16,123,-75
58081,-18,131,-78
58094,-36,124,-77
58106,-35,125,-86
58118,-36,140,-83
58131,-18,115,-85
58143,-25,133,-84
58155,-28,121,-96
58168,-23,129,-85
58180,-28,145,-90
58195,-55,135,-93
58207,-40,130,-94
58219,-32,124,-84
58232,-35,142,-98
58244,-23,122,-99
58256,-27,129,-85
58269,-25,122,-101
58286,-55,128,-86
58301,-17,126,-91
58313,-10,136,-73
58326,-36,133,-86
58342,-35,136,-79
58357,-41,138,-72
58372,-24,102,-78
58387,-23,133,-92
58402,-40,119,-77
58416,-32,124,-82
58428,-30,133,-94
58441,-29,141,-84
58453,-4,135,-74
58466,-20,136,-97
58479,-9,145,-91
58493,-15,139,-90
58506,-29,127,-81
58519,-20,135,-88
58531,-30,129,-80
58544,-36,134,-76
58556,-23,121,-75
58569,-25,140,-83
58581,-15,126,-76
58594,-20,138,-92
58607,-6,141,-83
58620,-17,130,-85
58633,-47,129,-75
58648,-28,137,-82
58663,-4,119,-76
58679,-9,133,-82
58693,-10,121,-79
58709,-2,127,-93
58724,-31,126,-80
58739,-26,133,-109
58755,-1,135,-88
58770,-37,128,-65
58784,-19,129,-80
58796,-15,126,-78
58809,-16,135,-101
58822,-30,129,-80
58834,-14,125,-87
58847,-25,122,-77
58859,-14,133,-87
58872,-12,116,-87
58884,-10,127,-89
58899,-25,128,-99
58912,-34,125,-84
58925,-22,124,-84
58941,-20,120,-72
58956,-37,141,-76
58971,-28,120,-80
58987,-26,126,-92
59002,-11,128,-82
59017,-25,119,-84
59033,-27,137,-92
59048,-20,134,-95
59063,-5,141,-75
59078,-38,116,-90
59094,-23,125,-97
59109,-19,136,-91
59126,-9,112,-80
59139,-13,133,-77
59155,-19,114,-94
59168,-35,133,-85
59181,-12,136,-88
59193,-26,129,-97
59206,-17,143,-100
59218,-19,125,-69
59231,-29,125,-74
59244,-29,137,-74
59257,-5,131,-102
59269,-34,127,-93
59282,-29,131,-78
59294,-26,126,-68
59307,-45,131,-82
59321,-17,138,-89
59334,-14,130,-82
59347,-27,122,-85
59359,-24,131,-78
59372,-29,135,-86
59384,3,132,-74
59397,-23,131,-93
59409,-36,127,-73
59422,-27,129,-87
59434,-27,127,-76
59447,-36,135,-68
59459,-14,138,-87
59472,-18,139,-95
59484,-17,116,-97
59497,-33,128,-78
59511,-22,144,-85
59525,-28,132,-96
59542,-30,138,-70
59554,-23,126,-82
59567,-13,132,-102
59580,-23,120,-69
59592,-20,140,-72
59605,-29,143,-88
59617,2,134,-83
59630,-37,130,-96
59642,-19,124,-92
59655,-14,127,-101
59667,-33,118,-95
59680,-3,133,-93
59692,-14,115,-82
59705,-8,153,-76
59722,-19,126,-87
59738,-28,133,-92
59753,-6,136,-115
59768,-15,133,-85
59784,-29,129,-83
59799,-20,132,-84
59814,-38,140,-55
59830,-21,128,-95
59846,0,116,-72
59858,-14,137,-81
59871,-25,133,-92
59884,-20,142,-75
59897,-27,127,-82
59910,-31,125,-71
59922,-27,144,-88
59937,-17,127,-84
59950,-26,135,-102
59962,-29,132,-93
59975,-28,125,-78
59987,-30,137,-73
60000,-15,113,-73
60012,-17,125,-91
60025,-31,124,-84
60038,-22,133,-86
60050,-25,119,-84
60063,-35,125,-81
60075,-32,125,-84
60091,-45,123,-79
60106,-19,134,-66
60121,-10,128,-88
60139,-24,135,-95
60152,-23,132,-74
60167,-22,130,-81
60182,-4,120,-86
60198,-37,132,-100
60213,-20,113,-70
60228,-2,138,-90
60243,-24,133,-78
60258,-37,124,-70
60272,-21,133,-75
60284,-24,124,-80
60297,-18,124,-71
60309,-33,137,-91
60324,-39,134,-95
60340,-9,127,-102
60357,-37,139,-96
60488,-25,125,-86
60604,-8,120,-109
60617,-11,141,-82
60629,-36,124,-88
60642,-19,142,-86
60654,-22,141,-83
60668,-19,139,-98
60681,-15,128,-84
60696,-11,120,-80
60712,-28,116,-68
60727,-24,141,-96
60742,-20,134,-85
60757,-20,139,-108
60773,-36,138,-94
60788,-25,133,-80
60804,-28,126,-70
60821,-26,130,-88
60834,-20,136,-84
60849,-28,135,-72
60863,-18,120,-97
60875,-33,117,-78
60890,-22,130,-64
60905,-22,125,-98
60920,-22,133,-90
60935,-15,135,-84
60951,-26,116,-95
60963,-12,116,-85
60975,-32,126,-90
60987,-15,138,-77
61001,-32,137,-96
61013,-10,128,-87
61027,-9,133,-94
61040,-25,121,-85
61053,-19,117,-107
61065,-20,130,-95
61078,-18,136,-80
61090,-29,142,-96
61102,-33,119,-85
61115,-22,130,-97
61127,-25,125,-79
61139,-12,130,-91
61152,-28,121,-79
61167,-9,130,-85
61182,-11,128,-85
61197,-23,132,-84
61213,-14,138,-63
61226,-24,120,-88
61244,-14,118,-81
61259,-12,133,-85
61274,-26,129,-70
61289,-23,131,-102
61306,-30,134,-80
61318,-18,131,-78
61330,-23,135,-72
61343,-35,126,-75
61355,-37,130,-74
61370,-41,135,-112
61386,-17,136,-105
61401,-8,147,-86
61416,-29,132,-80
61431,-34,128,-88
61446,-24,130,-86
61461,-25,146,-81
61473,-15,135,-77
61486,-15,129,-82
61498,-30,128,-88
61511,-13,125,-94
61523,-28,125,-83
61535,-27,127,-85
61548,-8,135,-69
61560,-20,127,-92
61573,-21,128,-89
61585,-35,118,-92
61600,-15,121,-75
61612,-28,140,-108
61627,-37,118,-90
61643,-32,138,-86
61657,-18,118,-86
61673,-39,118,-82
61688,-36,110,-83
61703,-7,142,-77
61719,-37,113,-91
61734,-30,130,-89
61749,-8,131,-80
61765,-32,138,-92
61780,-29,143,-87
61795,-39,123,-104
61811,-33,134,-88
61826,-23,138,-75
61841,-43,122,-91
61857,-22,131,-86
61872,-20,136,-97
61889,-41,126,-93
61902,-26,118,-79
61917,-28,143,-81
61934,-31,140,-68
61946,-14,134,-80
61959,-18,137,-84
61971,-55,126,-90
61984,-28,138,-68
61997,-32,121,-84
62010,-21,126,-95
62023,-12,118,-82
62035,-27,140,-93
62048,-43,135,-83
62060,-24,135,-101
62073,-11,140,-73
62087,-4,139,-88
62100,-21,125,-86
62113,-26,133,-74
62125,-33,122,-79
62138,-34,140,-81
62150,-36,125,-76
62163,-13,134,-84
62175,-29,127,-85
62188,-23,143,-72
62200,-19,130,-69
62213,-26,136,-76
62226,-30,147,-90
62239,-39,126,-86
62252,-29,125,-90
62264,-30,121,-89
62277,-26,138,-69
62294,-25,125,-103
62310,-20,117,-96
62325,-45,129,-81
62340,-43,133,-75
62354,-15,129,-89
62367,-41,127,-63
62379,-23,131,-76
62392,-30,137,-106
62404,-16,120,-88
62417,-21,122,-79
62429,-23,120,-100
62442,-32,125,-68
62454,-11,125,-83
62467,-34,138,-91
62480,-38,127,-103
62494,-29,136,-74
62507,-17,136,-82
62520,-21,128,-90
62533,-14,125,-102
62546,-21,123,-102
62558,-26,141,-86
62571,-23,134,-83
62583,-22,141,-82
62596,-27,134,-82
62608,-23,125,-101
62621,-44,117,-92
62633,-22,128,-87
62646,-24,136,-65
62658,-15,137,-79
62671,-39,128,-94
62685,-10,136,-87
62702,-22,120,-86
62718,-22,138,-80
62733,-28,120,-87
62748,-34,122,-86
62763,-16,131,-77
62779,-22,139,-81
62794,-9,130,-97
62809,-31,114,-90
62826,-25,131,-62
62838,-33,133,-93
62850,-35,133,-79
62863,-28,133,-68
62875,-13,122,-72
62890,-30,131,-95
62907,-14,135,-93
62920,-31,133,-85
62933,-29,134,-86
62945,-19,127,-73
62957,-17,124,-67
62970,-34,133,-92
62982,-15,130,-91
62995,-20,126,-78
63007,-27,130,-96
63019,-36,134,-100
63032,-11,119,-89
63044,-16,131,-67
63057,-25,123,-75
63070,-21,140,-90
63082,-33,118,-79
63097,-46,124,-80
63109,-28,129,-72
63125,-19,121,-90
63138,-38,134,-101
63150,-26,136,-66
63163,-21,127,-94
63175,-15,126,-81
63187,-30,127,-76
63200,-24,135,-82
63212,-27,115,-109
63225,-33,121,-87
63237,-31,148,-65
63250,-20,128,-85
63262,-26,140,-80
63277,-13,108,-71
63294,-12,143,-77
63307,-13,122,-83
63319,-24,130,-92
63332,-5,128,-98
63344,-22,138,-89
63357,-36,122,-81
63369,-22,121,-86
63381,-21,152,-102
63394,-5,117,-82
63407,-20,136,-100
63424,-14,122,-89
63439,-19,122,-101
63454,-14,118,-77
63470,0,125,-94
63485,-3,103,-88
63502,-18,130,-76
63515,-26,133,-94
63530,-23,123,-77
63546,-23,128,-114
63561,-32,135,-96
63576,-30,114,-82
63592,-21,132,-73
63607,-35,155,-87
63622,-27,127,-86
63638,-21,127,-62
63653,-29,138,-77
63668,-33,119,-90
63684,-5,124,-90
63699,-21,136,-100
63714,-12,137,-83
63730,-34,146,-79
63745,-33,118,-86
63758,-34,128,-92
63771,-23,113,-82
63783,-18,130,-79
63796,-29,127,-87
63808,-18,123,-86
63822,-34,119,-76
63834,-20,123,-75
63847,-16,143,-87
63859,-4,121,-78
63872,-16,135,-90
63884,-27,108,-94
63896,-30,127,-82
63909,-35,125,-74
63921,-29,131,-95
63936,-23,135,-81
63949,-20,112,-66
63961,-38,139,-106
63973,-42,139,-80
63986,-27,121,-84
64001,-18,134,-87
64017,-33,135,-77
64293,-20,124,-60
64306,-19,128,-90
64319,-17,118,-101
64331,-21,128,-75
64344,-9,137,-68
64356,-13,111,-90
64369,-42,138,-87
64382,-25,131,-91
64394,-35,120,-88
64407,-45,132,-95
64419,-12,140,-81
64433,-41,114,-70
64445,-24,129,-76
64458,-36,149,-78
64471,-25,133,-98
64486,-16,129,-90
64499,-23,129,-91
64511,-15,136,-81
64524,-34,118,-81
64539,-47,125,-75
64554,-19,132,-93
64569,-5,129,-65
64584,-16,113,-84
64601,-48,131,-84
64613,-27,119,-83
64625,-7,124,-77
64638,-28,140,-86
64650,-18,133,-86
64665,-36,122,-81
64681,-20,118,-84
64696,-4,133,-91
64710,-21,122,-62
64723,-29,139,-81
64735,-1,131,-89
64748,-22,126,-89
64760,-22,120,-59
64772,-32,136,-83
64785,-24,139,-88
64801,-22,111,-83
64816,-16,139,-91
64832,-13,134,-100
64847,-28,136,-97
64862,-23,116,-90
64878,-15,115,-76
64893,-35,125,-79
64909,-27,140,-65
65225,-41,127,-76
65238,-25,140,-88
65251,-12,124,-82
65263,-33,128,-69
65276,-36,127,-94
65289,-5,136,-91
65301,-30,134,-114
65314,-12,112,-82
65326,-7,116,-90
65339,-23,117,-93
65351,-28,137,-96
65364,-23,135,-78
65376,-25,140,-79
65389,-23,114,-88
65402,-21,113,-91
65414,-26,121,-79
65429,-14,122,-79
65442,-34,141,-79
65454,-30,135,-74
65468,-21,131,-82
65480,-21,139,-87
65494,-20,132,-86
65507,-29,137,-92
65519,-25,130,-81
65532,-31,129,-72
65544,-43,131,-74
65557,-25,122,-104
65569,-27,138,-75
65582,-31,144,-96
65595,-16,126,-73
65607,-6,146,-73
65622,-34,144,-74
65634,-27,118,-92
65647,-29,133,-118
65660,-47,148,-105
65672,-30,121,-95
65685,-37,124,-76
65697,-23,131,-81
65710,-14,132,-79
65722,-7,139,-86
65735,-25,127,-88
65747,-30,123,-89
65760,-17,138,-85
65774,-30,121,-82
65786,-31,142,-84
65801,-23,114,-93
65817,-22,127,-79
65830,-30,115,-72
65842,-40,135,-71
65855,-19,133,-102
65867,-28,129,-83
65879,-9,140,-91
65892,-12,125,-87
65907,-15,124,-68
65922,-39,129,-80
65937,-32,133,-75
65952,-6,145,-74
65968,-9,121,-99
65983,-32,138,-80
65998,-13,134,-79
66013,-32,124,-81
66030,-18,127,-78
66043,-13,131,-69
66055,-23,135,-93
66068,-35,136,-73
66080,-14,154,-64
66094,-25,136,-67
66109,-23,151,-65
66124,-27,129,-68
66139,-37,133,-87
66154,-28,127,-97
66170,-37,116,-108
66185,-33,116,-91
66198,-27,135,-98
66211,-9,136,-82
66223,-29,135,-88
66235,-20,133,-67
66250,-25,144,-66
66265,-24,126,-80
66280,-37,131,-108
66296,-21,124,-84
66311,-18,123,-97
66326,-30,141,-101
66341,-10,129,-101
66356,-15,123,-88
66371,-20,137,-77
66387,-24,119,-80
66402,-17,129,-88
66418,-12,125,-76
66431,-26,107,-84
66443,-22,129,-97
66456,-22,122,-78
66473,-18,128,-92
66488,-17,114,-78
66504,-33,137,-78
66519,-33,140,-94
66534,-44,134,-100
66550,-31,145,-95
66565,-37,116,-92
66579,-10,142,-96
66591,-22,123,-95
66604,-16,120,-76
66616,-25,119,-90
66629,-23,130,-106
66641,-38,146,-70
66654,-24,130,-83
66666,-20,131,-87
66681,-7,139,-78
66694,-25,135,-77
66706,-29,128,-80
66720,-9,116,-100
66735,-21,132,-92
66751,-19,127,-81
66766,-21,128,-76
66781,-27,143,-82
66797,-38,128,-75
66812,-27,127,-95
66827,-27,115,-99
66843,-45,133,-75
66858,-15,136,-81
66873,-16,125,-71
66889,-37,131,-72
66906,-26,125,-72
66919,-24,125,-78
66931,-23,143,-71
66944,-38,135,-79
66957,-27,124,-71
66970,-21,114,-97
66983,-14,124,-66
66995,-33,121,-90
67008,-23,133,-84
67020,-35,111,-64
67034,-11,120,-94
67046,-27,128,-71
67059,-19,105,-87
67071,-27,133,-75
67084,-23,135,-88
67098,-22,110,-79
67111,-13,136,-72
67124,-25,133,-100
67136,-27,110,-99
67149,-32,134,-101
67161,-15,135,-83
67174,-33,134,-80
67186,-8,144,-79
67199,-15,119,-83
67212,-18,150,-84
67224,-37,116,-101
67237,-15,127,-86
67249,-27,128,-77
67262,-20,147,-102
67274,-22,140,-74
67287,-12,112,-88
67302,-13,133,-72
67315,-15,131,-96
67328,-13,126,-73
67341,-21,137,-68
67356,-17,115,-79
67371,-37,147,-73
67386,-18,131,-119
67401,-21,133,-76
67416,-23,125,-65
67432,-17,146,-80
67447,-21,121,-85
67462,-20,127,-79
67477,-44,138,-79
67492,-35,130,-81
67507,-30,132,-69
67522,-18,127,-95
67534,-22,126,-73
67547,-25,106,-88
67559,-15,128,-93
67572,-25,134,-100
67584,-25,127,-75
67596,-37,109,-84
67609,-34,124,-86
67621,-18,137,-102
67635,-38,119,-95
67647,-11,141,-81
67659,-14,115,-75
67673,-23,136,-81
67688,-14,140,-72
67703,-23,140,-93
67721,-22,132,-93
67733,-28,130,-72
67746,-26,125,-85
67758,-21,145,-82
67771,-35,132,-77
67783,-26,130,-73
67795,-35,138,-86
67808,-39,141,-103
67820,-50,141,-98
67833,-15,150,-67
67845,-36,141,-84
67858,-30,120,-90
67870,-37,124,-96
67882,-32,129,-94
67895,-32,119,-86
67907,-18,134,-80
67926,-24,123,-78
67938,-19,135,-101
67951,-20,133,-108
67963,-24,129,-65
67976,-48,145,-80
67993,-30,141,-91
68006,-32,140,-75
68018,-10,131,-78
68032,-28,132,-82
68044,-24,143,-87
68060,-35,133,-93
68076,-16,125,-89
68091,-34,110,-77
68107,-33,123,-79
68122,-19,131,-77
68137,-19,128,-93
68153,-20,121,-90
68168,-12,152,-98
68184,-50,137,-95
68199,-24,130,-86
68215,-45,131,-94
68230,-28,137,-76
68247,-20,128,-92
68259,-16,139,-87
68271,-28,129,-65
68284,3,126,-68
68296,-17,147,-83
68309,-17,133,-75
68321,-26,123,-90
68336,-15,134,-86
68351,-33,119,-72
68363,-17,128,-82
68376,-37,130,-80
68388,-31,119,-89
68401,-17,128,-91
68417,-21,126,-88
68432,-31,139,-95
68447,-25,139,-98
68462,-7,131,-105
68478,-29,136,-75
68493,-28,115,-100
68508,-18,138,-91
68523,-25,151,-92
68538,-24,135,-85
68554,-23,129,-70
68572,-31,125,-87
68585,-10,137,-91
68597,-7,139,-79
68609,-42,141,-80
68625,-23,123,-91
68640,-17,128,-92
68655,-28,114,-74
68670,-24,123,-98
68685,-24,147,-82
68700,6,145,-104
68716,-38,122,-72
68731,-17,133,-76
68746,-15,152,-85
68761,-5,124,-96
68776,-34,137,-89
68792,-43,133,-85
68806,-39,137,-78
68820,-10,111,-71
68832,-39,135,-96
68847,6,128,-86
68863,2,130,-87
68878,-30,131,-85
68894,-31,134,-74
68906,-25,134,-87
68919,-28,130,-100
68932,-38,124,-93
68944,-37,129,-62
68957,-22,116,-86
68969,-25,136,-80
68982,-50,130,-80
68994,-33,139,-76
69009,-23,127,-67
69022,-29,125,-91
69034,-19,143,-92
69047,-12,134,-93
69059,-22,138,-95
69072,-23,130,-83
69084,-39,125,-75
69097,-23,126,-86
69109,-29,140,-95
69122,-30,127,-94
69135,-32,123,-75
69147,-23,135,-74
69160,-27,128,-86
69174,-34,132,-77
69190,-32,146,-70
69204,-29,122,-79
69220,-33,120,-103
69235,-41,130,-80
69250,-11,135,-69
69266,-11,139,-99
69281,-26,118,-85
69296,-24,130,-71
69312,-12,129,-79
69327,-26,133,-77
69342,-28,132,-89
69358,-15,133,-85
69373,-33,127,-78
69388,-5,138,-91
69404,-33,140,-95
69419,-17,117,-97
69436,-19,122,-99
69449,-26,133,-96
69464,-28,136,-96
69480,-18,116,-96
69495,-25,132,-102
69511,-56,148,-96
69524,-36,120,-88
69536,-21,142,-81
69549,-24,145,-83
69561,-28,134,-86
69575,-44,117,-82
69588,-40,125,-84
69600,-11,115,-94
69613,-19,129,-89
69625,-27,120,-84
69640,236,130,-84
69653,-26,132,-91
69665,-9,123,-84
69678,-1,117,-82
69690,-10,134,-92
69703,-35,123,-79
69715,-29,120,-77
69728,-31,136,-88
69740,-40,127,-62
69753,-19,134,-65
69765,0,135,-74
69778,-17,140,-84
69791,-25,135,-83
69804,-36,127,-91
69817,-20,137,-77
69834,-24,109,-86
69847,-16,136,-81
69859,-18,133,-81
69872,-21,135,-94
69884,-29,137,-82
69897,-30,128,-97
69912,-22,120,-95
69926,-22,133,-99
69938,-22,141,-79
69951,-25,134,-79
69963,-30,135,-78
69976,-7,121,-92
69988,-38,122,-82
70001,-34,127,-75
70014,-28,117,-80
70026,-40,134,-77
70041,-27,142,-94
70053,-27,142,-105
70066,-29,140,-65
70079,-30,139,-101
70092,-24,144,-98
70105,-27,164,-88
70117,-15,143,-84
70130,-18,116,-103
70142,-15,130,-85
70155,-32,117,-74
70168,-23,113,-87
70180,-24,136,-59
70193,-7,134,-100
70208,-32,124,-105
70223,-21,127,-95
70238,-17,139,-85
70251,-16,137,-79
70263,-17,127,-82
70277,-23,120,-87
70289,-28,116,-97
70304,-25,135,-95
70319,-34,136,-98
70335,-26,121,-83
70350,-38,121,-94
70365,-25,135,-80
70380,-23,133,-73
70396,-22,115,-72
70409,-24,136,-84
70421,-16,136,-80
70434,-22,114,-108
70451,-26,120,-95
70466,-23,144,-61
70481,-22,119,-85
70497,-41,112,-71
70512,-24,135,-75
70527,-24,133,-93
70542,-31,128,-103
70557,-31,135,-87
70572,-13,103,-88
70588,-27,136,-95
70603,-33,131,-93
70618,-44,132,-74
70633,-28,129,-84
70648,-21,125,-90
70664,-30,124,-77
70679,1,128,-85
70692,-20,110,-77
70704,-28,121,-74
70719,-30,138,-76
70734,-34,132,-69
70746,-23,142,-80
70759,-28,133,-74
70771,-32,129,-64
70783,-31,146,-98
70796,-34,134,-78
70808,-6,139,-87
70820,-38,140,-89
70835,-13,125,-101
70847,-31,140,-71
70860,-45,120,-103
70872,-17,128,-69
70886,-28,126,-79
70899,-20,150,-99
70911,-12,125,-124
70926,-28,135,-85
70941,-40,141,-70
70953,-32,136,-77
70966,-34,131,-91
70978,-26,130,-89
70990,-17,140,-93
71002,-28,126,-81
71016,-31,134,-105
71028,-12,133,-75
71041,-18,135,-86
71053,-32,135,-81
71065,-18,128,-92
71080,-7,140,-84
71093,-30,127,-94
71105,-40,127,-84
71117,-23,121,-89
71130,-38,141,-60
71142,-32,127,-99
71157,-23,134,-88
71173,-25,130,-101
71188,-41,127,-71
71203,-18,126,-86
71218,-21,140,-94
71233,-21,136,-95
71248,-20,133,-98
71264,-27,123,-75
71279,-23,136,-83
71294,-30,131,-88
71308,-10,127,-79
71322,-19,126,-92
71335,-36,130,-94
71350,-48,133,-67
71365,-21,119,-91
71381,-26,129,-83
71394,-15,129,-75
71407,-27,134,-98
71419,-25,123,-93
71432,-2,128,-78
71445,-17,127,-89
71457,-20,139,-81
71470,-31,135,-85
71658,-34,129,-67
71671,-32,154,-72
71683,-7,138,-110
71696,-38,136,-84
71709,-22,129,-89
71722,-37,133,-87
71737,-24,131,-81
71753,-27,113,-91
71768,-37,137,-86
71784,-24,125,-88
71800,-30,133,-86
71813,-30,112,-75
71826,-31,135,-84
71838,-31,136,-96
71851,-17,132,-82
71868,-27,126,-81
71882,-27,132,-75
71894,-36,138,-80
71910,-38,134,-83
71925,-23,132,-92
71939,-29,139,-112
71951,-19,137,-80
71964,-36,144,-80
71976,-38,134,-88
71989,-19,137,-80
72001,-19,139,-65
72014,-19,109,-99
72027,-30,131,-76
72039,-28,135,-76
72052,-15,139,-107
72064,-25,140,-86
72079,-38,145,-89
72092,-36,121,-90
72105,-27,135,-71
72118,-10,126,-74
72130,-3,135,-78
72143,-29,130,-95
72155,-26,131,-84
72168,-25,134,-71
72180,-20,128,-80
72193,-16,124,-85
72205,-23,128,-87
72218,-28,139,-93
72230,-13,138,-78
72243,-22,134,-87
72255,-18,141,-91
72270,-21,122,-85
72287,-28,115,-84
72302,-29,133,-91
72317,-31,137,-69
72332,-27,137,-87
72348,-30,148,-87
72363,-20,124,-97
72378,-17,126,-93
72394,-34,126,-67
72410,-31,134,-79
72422,-20,120,-61
72435,-10,130,-89
72447,-39,139,-89
72460,-11,136,-103
72472,-23,126,-84
72490,-33,145,-84
72505,-19,135,-76
72521,-32,117,-94
72536,-27,125,-79
72551,-13,138,-77
72566,-30,137,-92
72582,-35,132,-93
72597,-28,122,-73
72612,-20,151,-82
72628,-17,114,-99
72643,-16,131,-90
72658,-26,136,-87
72673,-17,119,-75
72687,-20,132,-84
72700,-21,125,-103
72714,-30,135,-88
72728,-20,126,-95
72741,-24,138,-92
72753,-31,141,-68
72766,-41,131,-90
72778,-20,142,-84
72791,-27,138,-102
72803,-18,120,-79
72816,-14,105,-77
72829,-24,133,-93
72841,-20,130,-81
72854,-31,134,-79
72866,-3,128,-94
72879,-33,132,-68
72894,-21,151,-80
72911,-13,132,-91
72924,-28,129,-83
72937,-12,131,-87
72949,-17,127,-105
72965,-23,131,-98
72980,-12,122,-103
72995,-23,121,-78
73011,-27,118,-77
73027,-37,133,-93
73040,-24,131,-79
73053,-36,112,-75
73066,-25,143,-85
73081,-29,126,-98
73097,-30,126,-96
73112,-32,137,-97
73129,-20,146,-101
73142,-47,131,-86
73157,-21,148,-113
73173,-33,134,-87
73188,-21,137,-100
73203,-29,125,-85
73219,-19,140,-89
73234,-29,129,-76
73249,-15,124,-95
73265,-29,131,-75
73280,-23,124,-79
73295,-28,124,-78
73311,-15,136,-70
73326,-18,135,-100
73341,-14,125,-83
73357,-11,132,-82
73372,-31,136,-80
73385,-42,142,-75
73397,-10,160,-67
73412,-10,137,-88
73427,-24,139,-93
73443,-23,139,-113
73456,-21,124,-80
73468,-6,123,-75
73483,-29,124,-94
73495,-34,128,-78
73508,-27,140,-81
73520,-22,117,-79
73532,-13,134,-73
73545,-9,140,-97
73557,-44,132,-77
73574,-5,138,-80
73589,-34,146,-94
73601,-16,135,-85
73614,-29,128,-75
73626,-36,125,-98
73638,-42,137,-81
73650,-26,141,-82
73664,-24,126,-90
73676,-20,141,-77
73689,-22,128,-80
73701,-38,139,-74
73713,-20,135,-72
73725,-41,127,-86
73738,-13,145,-107
73750,-23,140,-91
73767,-21,138,-76
73779,-34,140,-94
73792,-15,129,-83
73809,-28,137,-101
73821,-20,133,-96
73833,-17,120,-97
73845,-19,128,-96
73860,-7,140,-92
73873,-15,117,-92
73885,-30,124,-62
73897,-26,127,-86
73910,-25,137,-90
73922,-17,127,-92
73934,-33,119,-99
73947,-12,127,-94
73962,-21,131,-91
73974,-11,136,-89
73987,-13,137,-70
73999,-26,135,-82
74011,-36,120,-90
74027,-36,133,-97
74042,-29,135,-79
74057,-25,122,-103
74072,-35,126,-77
74087,-18,122,-90
74103,-24,141,-75
74118,-18,138,-95
74133,-13,130,-74
74148,-37,143,-83
74163,-38,122,-95
74179,-31,147,-82
74192,-36,136,-81
74204,-23,136,-80
74217,-23,105,-92
74229,-20,123,-73
74242,-4,137,-81
74255,-45,125,-99
74268,-32,143,-74
74281,-13,126,-100
74293,-28,123,-64
74306,-38,136,-90
74318,-34,139,-85
74331,-25,126,-85
74343,-26,109,-86
74356,-34,136,-78
74370,-25,126,-99
74383,-23,146,-89
74396,-29,113,-84
74408,-32,140,-65
74421,-31,120,-97
74434,-19,140,-91
74446,-41,125,-91
74459,-32,132,-85
74471,-24,124,-90
74484,-16,121,-78
74496,-37,135,-94
74509,-31,138,-76
74522,-11,127,-81
74535,-14,124,-100
74549,-31,138,-89
74563,-37,125,-82
74576,-19,133,-60
74589,-26,142,-63
74601,-45,120,-87
74614,-17,117,-91
74626,-31,140,-95
74639,-50,126,-87
74651,-10,125,-89
74664,-19,148,-76
74676,-21,137,-78
74689,-31,138,-97
74701,-16,143,-102
74714,-12,129,-96
74726,-20,132,-90
74739,-19,122,-89
74752,-9,117,-115
74766,-39,127,-86
74779,-25,135,-88
74792,-34,141,-93
74804,-23,135,-95
74817,-22,129,-63
74830,-19,141,-73
74846,-38,113,-92
74859,-34,149,-88
74872,-13,123,-87
74884,-22,128,-84
74897,-13,150,-75
74909,-29,129,-87
74922,-23,122,-88
74934,-15,128,-72
74947,-46,120,-89
74961,-28,143,-72
74974,-23,139,-77
74987,-33,131,-92
74999,-41,122,-89
75012,-29,131,-83
75024,-25,129,-74
75037,-28,133,-84
75251,-22,134,-78
75264,-28,134,-67
75277,-25,130,-95
75292,-16,134,-86
75307,-9,128,-73
75324,-1,142,-88
75337,-26,137,-79
75350,-30,131,-98
75362,-33,124,-89
75375,-16,124,-95
75388,-22,146,-90
75403,-21,130,-84
75417,-11,122,-73
75430,-30,126,-95
75442,-19,143,-80
75457,-38,131,-78
75470,-29,124,-68
75483,-19,120,-83
75495,-14,125,-92
75508,-22,126,-87
75520,-37,128,-84
75533,-19,122,-81
75545,-2,118,-92
75558,-27,127,-90
75570,-39,129,-75
75583,-18,136,-85
75596,-37,125,-81
75609,-21,133,-89
75624,-43,132,-90
75640,-29,138,-79
75655,-29,135,-80
75670,-20,139,-79
75685,-21,127,-80
75701,-30,131,-86
75716,-25,129,-84
75731,-24,117,-74
75746,-16,111,-110
75762,-39,137,-96
75777,-26,114,-96
75791,-6,119,-92
75803,-24,126,-77
75816,-30,139,-90
75828,-37,123,-86
75841,-33,131,-72
75853,-33,143,-77
75866,-30,149,-78
75883,-37,117,-80
75899,-30,139,-93
75914,-10,131,-95
75930,-37,142,-97
75946,-33,134,-78
75958,-25,127,-100
75971,-21,124,-102
75983,-29,129,-82
75995,-19,135,-77
76011,-26,138,-91
76026,-29,129,-77
76041,-20,148,-75
76056,-27,141,-77
76071,-13,125,-86
76087,-38,130,-81
76104,-29,137,-77
76116,-16,123,-84
76129,-19,135,-89
76141,-34,125,-74
76154,-35,128,-74
76167,-20,132,-84
76182,-27,128,-97
76197,-44,144,-77
76213,-23,112,-88
76228,-44,118,-68
76243,-31,139,-75
76259,-24,125,-94
76272,-22,142,-64
76284,-25,139,-73
76297,-27,126,-96
76311,-15,142,-93
76324,-31,137,-76
76339,-16,119,-76
76354,-19,139,-83
76369,-25,145,-88
76385,-21,128,-86
76400,-36,123,-67
76415,-30,124,-97
76430,-39,117,-101
76445,-9,135,-75
76460,-35,142,-111
76476,-38,136,-93
76491,-32,141,-91
76506,-24,132,-71
76521,-19,134,-90
76536,-15,141,-86
76551,-27,129,-87
76567,-37,132,-86
76580,-7,130,-67
76593,-34,130,-77
76608,-34,120,-80
76623,-28,133,-87
76638,-18,146,-86
76653,-17,123,-79
76669,-32,149,-78
76684,-29,154,-83
76699,-29,150,-88
76714,-27,121,-81
76729,-20,140,-86
76744,-23,123,-83
76760,-42,126,-90
76774,-33,136,-87
76787,-26,138,-79
76799,-25,141,-92
76812,-45,127,-91
76824,-20,132,-88
76836,-18,151,-85
76849,-29,131,-100
76861,-22,150,-86
76874,-37,146,-76
76887,-20,128,-78
76900,-25,125,-78
76912,-28,124,-69
76924,-17,128,-83
76941,-35,131,-83
76956,-28,123,-83
76973,-9,122,-90
76986,-15,135,-85
76998,-18,125,-70
77011,-28,134,-73
77023,-31,130,-88
77036,-44,141,-75
77048,-26,126,-78
77061,-32,125,-88
77073,-22,134,-72
77085,-39,128,-88
77098,-24,132,-90
77110,-29,118,-87
77123,-33,119,-87
77135,-23,134,-82
77147,-12,128,-93
77160,-24,141,-72
77177,-11,136,-85
77194,-44,136,-89
77206,-38,124,-82
77218,-26,132,-74
77231,-45,146,-105
77243,-33,111,-83
77258,-24,123,-84
77273,-26,124,-78
77289,-17,148,-79
77302,-23,141,-102
77315,-17,135,-104
77327,-18,122,-79
77340,-39,129,-79
77352,-44,152,-82
77365,-18,142,-95
77379,-20,146,-96
77392,-26,144,-84
77405,-16,132,-90
77417,-39,127,-85
77430,-26,125,-102
77442,-25,123,-81
77455,-25,137,-88
77467,-14,133,-77
77481,-28,119,-78
77493,-19,151,-62
77506,-29,140,-91
77518,-21,134,-80
77531,-15,116,-93
77544,-30,132,-81
77556,-9,123,-77
77571,-34,124,-77
77583,-38,105,-73
77596,-21,127,-77
77608,-20,143,-83
77621,-21,123,-72
77634,-26,124,-82
77650,-29,135,-76
77665,-16,146,-72
77680,-19,145,-78
77696,-11,156,-89
77711,-26,133,-77
77726,-36,135,-77
77742,-26,127,-73
77757,-24,147,-78
77772,-15,125,-87
77791,-15,136,-85
77804,-22,157,-83
77816,-20,131,-73
77829,-24,124,-76
77841,-36,128,-76
77854,-25,128,-84
77866,-26,119,-99
77879,-33,120,-88
77891,-12,131,-69
77904,-33,142,-101
77917,-33,110,-95
77929,-23,135,-88
77942,-30,124,-98
77954,-19,121,-90
77967,-29,133,-80
77981,-14,136,-79
77994,-29,135,-83
78007,-27,119,-91
78020,-23,136,-81
78033,-26,124,-75
78045,-24,118,-101
78058,-31,127,-76
78070,-26,131,-92
78083,-24,108,-90
78095,-30,133,-87
78108,-17,133,-92
78120,-15,132,-89
78133,-31,141,-88
78145,-22,134,-86
78158,-20,123,-63
78170,-21,130,-80
78185,-18,135,-74
78198,-24,141,-88
78210,-25,133,-87
78223,-36,130,-68
78235,-37,144,-80
78248,-20,131,-95
78261,-42,131,-76
78273,-24,128,-87
78286,-18,128,-76
78298,-35,141,-85
78311,-15,124,-93
78323,-13,132,-69
78336,-30,131,-85
78348,-35,132,-84
78366,-32,129,-91
78380,-38,133,-79
78393,-12,133,-81
78405,-27,131,-86
78420,-9,125,-85
78435,-34,137,-88
78451,-15,126,-65
78466,-48,130,-56
78481,-35,139,-79
78496,-29,120,-85
78511,-35,143,-97
78526,-34,141,-85
78542,-32,114,-76
78557,-17,124,-74
78572,-30,141,-75
78587,-36,123,-97
78604,-22,130,-84
78617,-14,139,-95
78629,-5,119,-86
78642,-26,140,-68
78654,-34,136,-69
78667,-22,141,-76
78680,-15,128,-84
78848,-27,135,-84
78862,-28,126,-74
78875,-9,123,-88
78887,-26,125,-72
78904,-16,125,-98
78919,-33,128,-93
78934,-38,132,-105
78950,-31,139,-102
78965,-27,123,-78
78980,-17,131,-81
78996,-25,143,-82
79011,-5,127,-92
79026,-15,130,-90
79042,-26,133,-91
79057,-18,135,-104
79073,-27,139,-86
79087,-32,130,-98
79103,-32,137,-103
79118,-37,119,-81
79133,-15,140,-78
79149,-14,121,-85
79165,-27,142,-91
79177,-13,126,-75
79190,-28,129,-94
79202,-16,137,-78
79215,-18,126,-88
79228,-38,136,-90
79240,-13,128,-77
79253,-7,141,-100
79265,-18,131,-83
79278,-21,142,-84
79293,-41,133,-84
79306,-32,118,-101
79319,-15,138,-81
79331,-14,116,-78
79344,-52,127,-90
79356,-16,137,-96
79369,-24,132,-95
79381,-26,128,-82
79394,-22,123,-76
79407,-22,138,-86
79419,-26,129,-88
79432,-26,125,-80
79444,-48,121,-79
79458,-31,146,-91
79470,-21,121,-83
79485,-13,134,-68
79500,-41,133,-81
79516,-7,123,-80
79531,-32,136,-82
79546,-31,145,-90
79562,-34,122,-82
79577,-32,125,-94
79592,-27,129,-78
79608,-19,127,-103
79623,-20,137,-77
79638,-15,141,-89
79654,-14,139,-85
79666,-38,142,-81
79678,-24,137,-72
79691,-20,126,-91
79705,-21,140,-79
79718,-20,120,-91
79730,-20,143,-81
79743,-40,141,-100
79755,-21,123,-93
79768,-25,126,-92
79781,-12,134,-85
79793,-27,129,-80
79806,-16,144,-83
79818,-24,135,-86
79830,-20,119,-99
79843,-29,120,-68
79855,-24,121,-78
79868,-16,127,-80
79880,-35,137,-91
79895,-21,125,-80
79910,-40,138,-86
79922,-18,119,-101
79935,-32,136,-106
79947,-31,129,-76
79960,-42,119,-88
79972,-9,142,-89
79984,-9,143,-78
80001,-31,133,-79
80016,-21,131,-108
80031,-34,154,-97
80046,-9,126,-85
80062,-23,138,-106
80075,-20,148,-72
80087,-19,125,-91
80100,-37,134,-70
80117,-23,166,-104
80132,-27,129,-79
80147,-29,134,-89
80162,-30,141,-77
80178,-37,135,-85
80193,-30,133,-80
80208,-24,114,-95
80223,-34,126,-93
80238,-33,152,-102
80253,-40,122,-84
80269,-20,138,-92
80284,-32,124,-86
80299,-34,126,-102
80314,-29,145,-80
80329,-17,127,-93
80346,-15,127,-98
80359,-29,139,-96
80372,-25,128,-82
80385,-23,129,-87
80398,-24,135,-77
80411,-19,134,-89
80424,-19,140,-78
80436,-28,139,-82
80449,-45,121,-87
80461,-16,132,-91
80474,-24,110,-68
80486,-39,146,-76
80499,-26,123,-89
80511,-9,141,-89
80524,-25,121,-83
80538,-31,149,-90
80551,-11,131,-83
80564,6,128,-75
80576,-29,136,-88
80589,-47,140,-89
80601,-11,147,-92
80614,-27,139,-95
80627,-37,125,-114
80639,-28,138,-107
80652,-25,131,-84
80664,-25,144,-71
80678,-29,132,-85
80690,-16,131,-76
80706,-24,119,-102
80721,-19,109,-73
80736,-11,124,-83
80752,-34,155,-92
80765,-31,128,-84
80777,-7,118,-79
80790,-14,123,-82
80803,-13,130,-107
80815,-14,122,-94
80828,-18,135,-67
80840,-4,125,-97
80853,-17,127,-92
80865,-20,141,-89
80878,-29,138,-85
80890,-33,136,-66
80903,-16,111,-88
80915,-32,131,-89
80928,-38,115,-73
80943,-18,117,-87
80955,-26,116,-102
80969,-5,129,-76
80981,-24,128,-95
80994,-23,113,-86
81006,-27,129,-65
81019,-18,135,-89
81031,-19,142,-100
81043,-34,126,-94
81056,-33,131,-74
81068,-16,125,-79
81081,-27,131,-82
81094,-20,133,-91
81106,-45,126,-77
81119,-10,125,-100
81133,-23,125,-78
81146,-45,118,-87
81158,-26,137,-93
81171,-30,129,-83
81183,-19,140,-76
81198,-27,139,-84
81213,-17,137,-93
81229,-23,126,-71
81244,-29,127,-78
81260,-7,138,-85
81272,-22,127,-74
81285,-21,129,-94
81297,-37,121,-81
81310,-27,119,-102
81325,-23,129,-89
81342,-50,123,-80
81355,-29,137,-89
81367,-19,132,-96
81379,-25,137,-93
81392,-18,144,-105
81404,-25,114,-86
81417,-33,137,-99
81429,-36,138,-92
81441,-33,126,-83
81455,-30,124,-77
81467,-22,132,-82
81480,-25,132,-85
81492,-32,131,-91
81504,-36,138,-88
81517,-25,128,-90
81529,-24,140,-76
81548,-30,140,-93
81560,-33,136,-102
81573,-18,121,-69
81585,-27,134,-73
81598,-13,138,-74
81610,-22,128,-82
81623,-30,136,-83
81635,-20,129,-75
81648,-24,134,-81
81661,-19,119,-93
81673,-21,120,-81
81686,-25,137,-77
81698,-36,128,-89
81711,-28,115,-77
81723,-19,132,-96
81738,-27,138,-84
81750,-25,125,-96
81763,-12,139,-82
81776,-40,126,-86
81788,-24,133,-80
81802,-11,116,-99
81814,-28,141,-88
81827,-12,126,-73
81840,-34,130,-93
81853,-13,148,-98
81865,-19,131,-82
81878,-17,125,-72
81891,-35,137,-90
81903,-26,135,-77
81916,-27,131,-85
81933,-25,139,-68
81949,-39,133,-101
81964,-17,116,-79
81979,-27,133,-87
81995,-37,122,-92
82010,-34,136,-87
82025,-18,150,-86
82041,-37,136,-68
82056,3,129,-74
82071,-35,140,-100
82087,-12,134,-95
82102,-34,128,-83
82117,-42,117,-80
82132,-35,129,-63
82148,-15,123,-76
82166,-40,120,-91
82179,-27,123,-70
82193,-22,132,-87
82205,-34,112,-82
82218,-25,139,-85
82230,-39,123,-71
82243,-24,131,-89
82436,-25,128,-83
82450,-10,120,-74
82465,-38,114,-82
82480,-7,131,-77
82496,-31,131,-74
82511,-29,124,-85
82527,-33,125,-79
82542,-21,133,-79
82558,-30,125,-102
82573,-26,145,-70
82589,-24,126,-86
82604,-29,124,-78
82619,-34,134,-72
82635,-29,122,-88
82651,-29,115,-74
82667,-24,127,-89
82682,-25,125,-73
82695,-29,117,-64
82708,-35,123,-83
82720,-25,135,-83
82733,-22,129,-87
82745,-18,128,-87
82762,-39,125,-85
82777,-29,127,-82
82792,-35,132,-101
82807,-21,142,-67
82822,-29,119,-81
82837,-29,135,-95
82853,-36,130,-79
82868,-34,150,-63
82883,-15,127,-70
82897,-31,127,-86
82910,-31,123,-77
82922,-15,135,-79
82935,-35,120,-77
82947,-25,139,-69
82959,-20,142,-82
82973,-42,131,-79
82985,-17,123,-90
82998,-9,112,-81
83010,-26,136,-77
83023,-31,144,-94
83035,-25,115,-81
83047,-25,153,-100
83060,-47,128,-83
83072,-28,137,-79
83087,-37,150,-81
83099,-31,146,-87
83112,-19,137,-77
83126,-12,141,-85
83138,-25,131,-86
83150,-37,123,-81
83163,-26,114,-103
83175,-15,125,-88
83188,-38,126,-78
83200,-14,122,-87
83212,-21,123,-86
83225,-31,138,-81
83237,-33,120,-86
83250,-38,125,-90
83263,-13,127,-69
83277,-40,119,-89
83290,-23,143,-79
83303,-20,133,-103
83315,-46,132,-69
83327,-25,134,-100
83340,-24,128,-82
83352,-37,127,-98
83365,-22,123,-89
83377,-11,136,-103
83390,-6,146,-93
83405,-14,132,-97
83420,-34,141,-83
83435,-34,136,-95
83450,-12,117,-70
83464,-20,116,-91
83476,-28,137,-78
83491,-35,132,-84
83504,-21,109,-93
83516,-15,137,-82
83529,-20,139,-94
83541,-20,121,-80
83555,-35,124,-77
83567,-32,136,-91
83580,-38,128,-72
83592,-25,130,-100
83605,-24,100,-109
83617,-27,146,-74
83629,-13,117,-100
83642,-21,127,-71
83654,-34,141,-90
83667,-33,141,-95
83681,-28,107,-68
83696,-31,122,-62
83712,-7,121,-92
83727,-21,122,-82
83742,-42,137,-88
83757,-31,129,-79
83772,-28,138,-85
83788,-13,132,-89
83803,-26,136,-85
83818,-29,124,-86
83831,-23,133,-81
83844,-8,127,-75
83861,-35,132,-89
83873,-23,130,-78
83890,-17,126,-98
83903,-23,138,-73
83915,-15,139,-89
83928,-21,120,-78
83940,-29,132,-85
83953,-31,134,-82
83965,-22,140,-81
83977,-15,116,-84
83990,-24,124,-74
84002,-34,131,-87
84015,-32,139,-84
84027,-29,149,-89
84040,-28,120,-62
84052,-27,124,-73
84064,-2,132,-90
84080,-29,115,-105
84094,-36,138,-105
84107,-29,135,-87
84119,-39,119,-87
84132,-17,130,-88
84145,-29,130,-75
84160,-13,129,-81
84176,-40,134,-85
84189,-36,132,-96
84202,-36,132,-97
84214,-16,127,-96
84227,-22,127,-81
84239,-28,137,-86
84252,-18,139,-100
84265,-36,127,-87
84277,-12,126,-89
84292,-46,124,-76
84304,-10,131,-88
84317,-13,139,-105
84330,-30,134,-99
84342,-32,144,-84
84355,-31,129,-83
84367,-28,148,-89
84380,-23,133,-75
84392,-28,136,-78
84405,-29,125,-76
84417,-17,121,-83
84430,-28,131,-87
84443,-26,135,-107
84456,-34,143,-93
84468,-23,138,-96
84483,-24,121,-73
84496,-18,122,-75
84508,-37,120,-88
84521,-26,130,-83
84537,-39,120,-105
84552,-6,133,-92
84568,-26,116,-72
84583,-23,143,-95
84598,-37,136,-93
84614,-29,134,-89
84629,-14,125,-83
84644,-17,137,-84
84660,-32,136,-81
84675,-30,137,-80
84690,-12,131,-76
84707,-29,134,-98
84720,-26,135,-94
84736,-22,126,-76
84751,-21,130,-101
84767,-28,125,-78
84780,-20,142,-71
84792,-10,125,-85
84805,-28,110,-95
84817,-19,133,-98
84830,2,142,-82
84842,-20,126,-92
84855,-28,128,-74
84867,-25,130,-84
84880,-7,130,-76
84893,-7,127,-74
84907,-15,139,-93
84921,-34,135,-82
84933,-19,123,-95
84946,-15,117,-79
84958,-19,127,-94
84971,-18,122,-81
84984,-5,133,-86
84996,-28,143,-85
85009,-23,123,-95
85021,-18,133,-89
85034,-44,127,-96
85047,-26,127,-70
85063,-43,143,-71
85078,-22,133,-85
85093,-47,130,-77
85110,-31,129,-80
85123,-27,133,-73
85136,-39,129,-75
85148,-20,112,-81
85161,-27,126,-75
85173,-25,129,-96
85189,-29,122,-87
85204,-22,125,-82
85219,-18,127,-104
85235,-18,141,-97
85250,-36,143,-100
85265,-23,141,-102
85281,-30,121,-90
85294,-22,132,-104
85307,-26,136,-94
85319,-11,126,-90
85337,-22,116,-94
85352,-32,137,-67
85367,-21,138,-81
85382,-16,125,-84
85398,-21,136,-84
85413,-47,121,-60
85429,-33,138,-77
85444,-48,135,-72
85459,10,124,-85
85474,-23,148,-82
85490,-10,133,-76
85505,-15,125,-87
85520,-6,130,-84
85536,-28,138,-79
85551,-18,139,-75
85568,-22,123,-80
85581,-18,129,-83
85597,-29,138,-88
85612,-26,140,-76
85627,-24,129,-94
85643,-17,120,-94
85658,-43,127,-87
85673,-28,131,-102
85689,-7,112,-85
85702,-13,128,-72
85715,-18,135,-87
85728,-17,122,-85
85740,-38,139,-87
85753,-16,130,-87
85765,-27,120,-76
85780,-27,130,-96
85792,-17,135,-87
85805,-33,150,-74
85817,-29,138,-95
85830,-27,132,-91
85842,-26,138,-73
85855,-25,130,-78
85872,-28,147,-82
86102,-24,127,-79
86114,-36,136,-92
86127,-27,109,-68
86140,-34,131,-71
86155,-16,125,-94
86170,-28,144,-80
86186,-30,141,-86
86201,-26,128,-75
86217,-25,116,-79
86233,-39,138,-90
86245,-24,132,-71
86258,-36,131,-104
86270,-15,140,-81
86284,-21,130,-94
86296,-26,123,-85
86311,-32,129,-74
86324,-28,124,-72
86336,-32,135,-87
86349,-16,129,-95
86361,-7,141,-83
86373,-9,131,-86
86385,-26,126,-90
86398,-24,125,-107
86413,-25,129,-80
86428,-18,130,-85
86443,-44,135,-101
86458,-20,130,-71
86470,-26,114,-90
86483,-33,127,-80
86495,-24,136,-103
86507,-30,128,-92
86523,-17,133,-83
86535,-13,125,-74
86547,-10,122,-84
86559,-31,126,-83
86572,-38,122,-69
86584,-14,131,-82
86599,-32,129,-76
86614,-12,132,-72
86626,-14,125,-81
86640,-33,129,-84
86655,-19,149,-74
86670,-19,145,-78
86685,-20,128,-66
86700,-24,125,-75
86716,-28,118,-94
86730,-32,139,-70
86743,-32,148,-83
86755,-28,119,-83
86768,-18,136,-86
86780,-21,125,-86
86792,-32,136,-75
86805,-33,148,-86
86817,-29,127,-94
86831,-25,144,-88
86843,-21,134,-83
86856,-10,137,-78
86871,-21,128,-86
86886,-20,128,-87
86902,-38,119,-77
86917,-15,120,-92
86934,-14,119,-92
86947,-27,148,-85
86963,-43,134,-86
86978,-43,131,-81
86993,-35,129,-73
87009,-29,136,-88
87022,-27,126,-81
87035,-14,125,-85
87047,-20,134,-76
87060,-39,134,-88
87072,-26,139,-83
87085,-40,126,-85
87098,-32,122,-77
87110,-10,133,-88
87123,-12,129,-76
87138,-45,115,-88
87151,-23,139,-80
87164,-25,148,-81
87176,-28,130,-107
87189,-27,106,-79
87201,-13,147,-87
87214,-26,140,-79
87226,-37,118,-75
87239,-46,131,-90
87254,-15,128,-92
87270,3,130,-88
87285,-16,128,-62
87300,-5,130,-97
87316,-22,130,-73
87331,-28,132,-100
87346,-41,132,-96
87361,-31,126,-85
87377,-21,129,-98
87390,-30,121,-92
87403,-19,121,-61
87415,-31,140,-68
87428,-29,138,-76
87441,-29,129,-82
87457,-20,125,-82
87472,-22,133,-87
87487,-44,139,-94
87503,-35,119,-86
87518,-29,134,-97
87533,-16,122,-67
87549,-24,122,-78
87564,-26,131,-91
87578,-28,137,-90
87594,-20,128,-71
87609,-7,140,-94
87625,-25,130,-69
87640,-22,146,-105
87655,-42,115,-100
87671,-26,122,-90
87686,-29,134,-91
87701,-22,134,-80
87716,-28,137,-80
87732,-19,127,-81
87747,-37,117,-89
87762,-36,128,-80
87779,-15,154,-94
87791,-15,124,-92
87808,-50,140,-88
87824,-17,132,-79
87839,-20,132,-96
87854,-28,144,-103
87869,-13,119,-80
87885,-44,131,-84
87900,-31,124,-82
87915,-22,137,-72
87931,-23,138,-106
87946,-37,142,-77
87961,-22,139,-86
87976,-24,126,-79
87992,-39,125,-100
88007,-17,136,-95
88022,-13,130,-71
88039,-11,129,-89
88052,-13,126,-89
88065,-23,132,-87
88077,-16,137,-80
88090,-37,129,-80
88103,-24,119,-89
88116,-32,132,-75
88129,-20,138,-99
88141,-26,122,-89
88154,-28,116,-78
88167,-15,118,-61
88180,-13,118,-85
88192,-25,140,-79
88205,-18,127,-92
88217,-15,142,-104
88232,-27,129,-96
88245,-16,140,-85
88257,-34,139,-75
88270,-31,133,-97
88282,-26,124,-72
88295,-28,142,-93
88307,-14,127,-73
88320,-32,118,-83
88333,-30,129,-83
88345,-32,126,-70
88358,-36,132,-107
88370,-21,127,-96
88383,-8,132,-97
88396,-21,133,-82
88409,-40,133,-81
88424,-39,151,-106
88439,-35,123,-87
88454,-15,134,-83
88470,-23,131,-91
88485,-26,126,-86
88500,-1,141,-82
88516,-36,131,-92
88529,-36,124,-74
88542,-16,139,-75
88554,-27,132,-97
88567,-11,144,-77
88580,-51,129,-90
88592,-13,129,-96
88605,-6,137,-88
88617,-30,126,-89
88630,-23,147,-86
88645,-31,146,-87
88657,-43,139,-83
88670,-21,128,-73
88682,-37,132,-92
88696,-9,134,-96
88708,-28,127,-79
88721,-25,128,-109
88733,-17,133,-79
88745,-31,115,-84
88758,-27,133,-81
88770,-23,125,-92
88783,-26,131,-89
88795,-39,128,-83
88808,-23,127,-101
88820,-34,141,-78
88834,-29,135,-105
88847,-23,133,-73
88860,-20,131,-96
88873,-30,143,-71
88885,-26,147,-87
88897,-41,122,-89
88912,-19,128,-74
88925,-18,143,-76
88937,-31,129,-75
88949,-43,124,-73
88961,-31,120,-87
88975,-22,142,-91
88987,-29,138,-93
88999,-36,122,-90
89012,-25,131,-83
89026,-32,134,-99
89039,-28,127,-91
89054,-5,117,-94
89066,-25,136,-72
89078,-22,134,-77
89090,-27,118,-65
89103,-20,142,-97
89115,-24,122,-80
89127,-29,127,-79
89139,-11,126,-88
89154,-30,142,-88
89167,-23,130,-98
89179,-18,151,-92
89191,-18,129,-87
89204,-17,131,-80
89217,-30,137,-71
89231,-30,136,-81
89244,-15,133,-78
89256,-43,139,-91
89269,-19,134,-82
89282,-18,134,-108
89294,-35,128,-83
89307,-41,136,-67
89319,-26,128,-84
89331,-20,138,-79
89344,-1,129,-88
89356,-31,135,-94
89369,-17,131,-84
89381,-23,125,-95
89393,-29,143,-91
89406,-32,132,-65
89423,-32,136,-78
89436,-4,130,-89
89448,-26,143,-100
89461,-16,136,-79
89473,-19,133,-75
89486,-30,129,-87
89498,-33,130,-80
89787,-17,127,-86
89803,-14,135,-76
89818,-37,125,-84
89835,-15,135,-81
89848,-19,133,-97
89864,-19,122,-95
89879,-36,133,-74
89895,-23,131,-85
89910,-22,140,-96
89926,-26,124,-73
89941,-22,142,-101
89957,-11,107,-84
89972,-21,145,-59
89988,-19,134,-79
90003,-43,148,-82
90021,-36,133,-85
90034,-17,131,-75
90047,-14,141,-92
90060,-15,131,-102
90072,-36,121,-100
90085,-9,121,-81
90097,-36,113,-96
90110,-26,144,-95
90122,-38,140,-88
90135,-31,133,-72
90148,-36,107,-91
90161,-36,127,-87
90174,-31,139,-98
90186,-38,121,-82
90199,-29,135,-59
90211,-11,124,-77
90230,-34,127,-70
90245,-16,110,-83
90260,-33,131,-81
90276,-32,141,-76
90291,-31,117,-84
90306,-16,128,-90
90322,-18,135,-81
90337,-33,141,-86
90352,-10,129,-88
